{"type":"node","id":"0","labels":["Category"],"properties":{"color":"#D5E8D4","name":"Identity","description":"Core identifiers for study, site, subject"}}
{"type":"node","id":"1","labels":["Category"],"properties":{"color":"#FFE6CC","name":"Demographics","description":"Subject demographic characteristics"}}
{"type":"node","id":"2","labels":["Category"],"properties":{"color":"#DAE8FC","name":"Parameter","description":"Analysis parameter definitions"}}
{"type":"node","id":"3","labels":["Category"],"properties":{"color":"#CCE5FF","name":"Value","description":"Observation and analysis values"}}
{"type":"node","id":"4","labels":["Category"],"properties":{"color":"#FFF2CC","name":"Qualifier","description":"Type and method qualifiers"}}
{"type":"node","id":"5","labels":["Category"],"properties":{"color":"#E1D5E7","name":"Timing","description":"Temporal concepts and hierarchy"}}
{"type":"node","id":"6","labels":["Category"],"properties":{"color":"#F8CECC","name":"Treatment","description":"Treatment assignment and dosing"}}
{"type":"node","id":"7","labels":["Category"],"properties":{"color":"#F5F5F5","name":"Flag","description":"Population and record flags"}}
{"type":"node","id":"8","labels":["Category"],"properties":{"color":"#FFCCCC","name":"Toxicity_Range","description":"Toxicity grading and reference ranges"}}
{"type":"node","id":"9","labels":["Category"],"properties":{"color":"#E6E6FA","name":"Time_to_Event","description":"Survival analysis concepts"}}
{"type":"node","id":"10","labels":["Category"],"properties":{"color":"#D4EDDA","name":"Traceability","description":"Source data traceability"}}
{"type":"node","id":"11","labels":["DataConcept","Identity"],"properties":{"name":"study","data_type":"string","description":"Clinical study identifier","adam_variables":["STUDYID"],"source":"DM.STUDYID","category":"Identity"}}
{"type":"node","id":"12","labels":["DataConcept","Identity"],"properties":{"name":"site","data_type":"string | integer","pattern":"SITEGRy = pooled group y (e.g., SITEGR1, SITEGR2)","description":"Site identifier and pooled site groupings for analysis","adam_variables":["SITEID","SITEGRy","SITEGRyN"],"category":"Identity"}}
{"type":"node","id":"13","labels":["DataConcept","Identity"],"properties":{"examples":["Asia","Europe","North America"],"name":"region","data_type":"string | integer","pattern":"REGIONy = region group y (e.g., REGION1, REGION2)","description":"Geographic region groupings","adam_variables":["REGIONy","REGIONyN"],"category":"Identity"}}
{"type":"node","id":"14","labels":["DataConcept","Identity"],"properties":{"name":"subject","data_type":"string","description":"Unique subject identifier. USUBJID is unique across studies, SUBJID is unique within study.","adam_variables":["USUBJID","SUBJID"],"source":"DM.USUBJID","category":"Identity"}}
{"type":"node","id":"15","labels":["DataConcept","Identity"],"properties":{"name":"sequence","data_type":"integer","description":"Analysis sequence number to ensure uniqueness within dataset","adam_variables":["ASEQ"],"category":"Identity"}}
{"type":"node","id":"16","labels":["DataConcept","Identity"],"properties":{"name":"disposition","data_type":"string | datetime","pattern":"xx = period number","description":"Trial disposition. EOS*=end of study, EOT*=end of treatment, EOP*=end of period, DC*=discontinuation reason","adam_variables":["EOSSTT","EOSDT","DCSREAS","DCSREASP","EOTSTT","DCTREAS","DCTREASP","EOTxxSTT","DCTxxRS","DCTxxRSP","EOPxxSTT","DCPxxRS","DCPxxRSP"],"category":"Identity"}}
{"type":"node","id":"17","labels":["DataConcept","Identity"],"properties":{"name":"milestone_date","data_type":"datetime","pattern":"y = milestone occurrence number","description":"Key milestone dates. RFICDT=informed consent, ENRLDT=enrollment, RANDDT=randomization, LSTALVDT=last known alive, DTHDT=death","adam_variables":["RFICDT","ENRLDT","RANDDT","RFICyDT","ENRLyDT","RANDyDT","LSTALVDT","DTHDT"],"category":"Identity"}}
{"type":"node","id":"18","labels":["DataConcept","Identity"],"properties":{"name":"death","data_type":"datetime | string | integer","description":"Death information. DTHDT=death date, DTHCAUS=cause, DTHCGRy=cause grouping y","adam_variables":["DTHDT","DTHDTF","DTHCAUS","DTHCAUSN","DTHCGRy","DTHCGRyN"],"category":"Identity"}}
{"type":"node","id":"19","labels":["DataConcept","Identity"],"properties":{"name":"stratification","data_type":"string | integer","pattern":"w = stratification factor number","description":"Stratification factors. STRATAR=randomized stratum, STRATwR=stratum w randomized, STRATwV=stratum w value","adam_variables":["STRATAR","STRATARN","STRATwD","STRATwR","STRATwRN","STRATAV","STRATAVN","STRATwV","STRATwVN"],"category":"Identity"}}
{"type":"node","id":"20","labels":["DataConcept","Demographics"],"properties":{"name":"age","data_type":"integer | string","pattern":"AGEGRy = age group y (e.g., AGEGR1, AGEGR2)","description":"Subject age and age groupings. AAGE = derived analysis age, AGEGRy = age group y","adam_variables":["AGE","AGEU","AAGE","AGEGRy","AGEGRyN"],"category":"Demographics"}}
{"type":"node","id":"21","labels":["DataConcept","Demographics"],"properties":{"name":"sex","data_type":"string","description":"Subject sex","adam_variables":["SEX"],"source":"DM.SEX","category":"Demographics"}}
{"type":"node","id":"22","labels":["DataConcept","Demographics"],"properties":{"name":"race","data_type":"string | integer","pattern":"RACEGRy = race group y (e.g., RACEGR1, RACEGR2)","description":"Subject race and race groupings","adam_variables":["RACE","RACEGRy","RACEGRyN"],"category":"Demographics"}}
{"type":"node","id":"23","labels":["DataConcept","Parameter"],"properties":{"name":"parameter","data_type":"string | integer","pattern":"PARCATy = parameter category y for grouping","description":"Analysis parameter and categorizations. PARAMCD limited to 8 characters.","adam_variables":["PARAM","PARAMCD","PARAMN","PARCATy","PARCATyN"],"category":"Parameter"}}
{"type":"node","id":"24","labels":["DataConcept","Parameter"],"properties":{"name":"criteria","data_type":"string | boolean","pattern":"CRITy/MCRITy where y = criterion number","description":"Analysis parameter criteria. CRITy = criterion definition, CRITyFL = criterion met flag, MCRITy = multiple criteria","adam_variables":["CRITy","CRITyFL","CRITyFN","MCRITy","MCRITyML","MCRITyMN"],"category":"Parameter"}}
{"type":"node","id":"25","labels":["DataConcept","Value"],"properties":{"name":"observation_value","data_type":"any","description":"Raw/collected observation value from SDTM source domains. Not stored directly in ADaM but is the source for AVAL.","adam_variables":["SDTM.--ORRES","SDTM.--STRESN","SDTM.--STRESC"],"source":"SDTM domains","category":"Value"}}
{"type":"node","id":"26","labels":["DataConcept","Value"],"properties":{"name":"analysis_value","data_type":"numeric | string","pattern":"AVALCATy = analysis value category y","description":"Analysis value for parameter. AVAL = numeric, AVALC = character, AVALCATy = categorization","adam_variables":["AVAL","AVALC","AVALCATy","AVALCAyN"],"category":"Value"}}
{"type":"node","id":"27","labels":["DataConcept","Value"],"properties":{"name":"baseline_value","data_type":"numeric | string","pattern":"BASECATy = baseline category y","description":"Subject baseline value. BASE = numeric, BASEC = character, BASECATy = categorization","adam_variables":["BASE","BASEC","BASECATy","BASECAyN"],"category":"Value"}}
{"type":"node","id":"28","labels":["DataConcept","Value"],"properties":{"name":"change_value","data_type":"numeric | string","description":"Change from/to baseline. CHG = AVAL - BASE (from baseline), BCHG = BASE - AVAL (to baseline)","adam_variables":["CHG","CHGCATy","CHGCATyN","BCHG","BCHGCATy","BCHGCAyN"],"formula":"CHG = AVAL - BASE","category":"Value"}}
{"type":"node","id":"29","labels":["DataConcept","Value"],"properties":{"name":"percent_change","data_type":"numeric | string","description":"Percent change from/to baseline. PCHG = ((AVAL-BASE)/BASE)*100","adam_variables":["PCHG","PCHGCATy","PCHGCAyN","PBCHG","PBCHGCAy","PBCHGCyN"],"formula":"PCHG = ((AVAL - BASE) / BASE) * 100","category":"Value"}}
{"type":"node","id":"30","labels":["DataConcept","Value"],"properties":{"name":"ratio_value","data_type":"numeric","description":"Ratio to reference value. R2BASE = AVAL/BASE, R2AyLO = ratio to lower limit, R2AyHI = ratio to upper limit","adam_variables":["R2BASE","R2AyLO","R2AyHI"],"formula":"R2BASE = AVAL / BASE","category":"Value"}}
{"type":"node","id":"31","labels":["DataConcept","Value"],"properties":{"name":"shift_value","data_type":"string | integer","pattern":"SHIFTy = shift group y","description":"Shift between defined pairings (e.g., Normal→High, Low→Normal)","adam_variables":["SHIFTy","SHIFTyN"],"category":"Value"}}
{"type":"node","id":"32","labels":["DataConcept","Qualifier"],"properties":{"examples":["LOCF","WOCF","AVERAGE","ENDPOINT","MINIMUM","MAXIMUM"],"name":"derivation_type","data_type":"string","description":"Analysis value derivation method","adam_variables":["DTYPE"],"category":"Qualifier"}}
{"type":"node","id":"33","labels":["DataConcept","Qualifier"],"properties":{"examples":["Last value before treatment","Last non-missing in screening","Average of screening values"],"name":"baseline_type","data_type":"string","description":"Definition of baseline used when multiple baseline definitions exist","adam_variables":["BASETYPE"],"category":"Qualifier"}}
{"type":"node","id":"34","labels":["DataConcept","Qualifier"],"properties":{"examples":["Planned","Actual"],"name":"treatment_type","data_type":"enumeration","description":"Distinguishes planned vs actual treatment (P = Planned, A = Actual)","adam_variables":[],"category":"Qualifier"}}
{"type":"node","id":"35","labels":["DataConcept","Qualifier"],"properties":{"examples":["D","M","Y","H","N","S"],"name":"imputation_flag","data_type":"string","description":"Date/time imputation flags indicating which components were imputed","adam_variables":["ADTF","ATMF","ASTDTF","ASTTMF","AENDTF","AENTMF","STARTDTF","STARTTMF"],"category":"Qualifier"}}
{"type":"node","id":"36","labels":["DataConcept","Timing"],"properties":{"temporal_order":true,"name":"timepoint","data_type":"datetime | integer","description":"Analysis date/time/day. ADT = analysis date, ATM = analysis time, ADTM = datetime, ADY = relative day","adam_variables":["ADT","ATM","ADTM","ADY"],"category":"Timing"}}
{"type":"node","id":"37","labels":["DataConcept","Timing"],"properties":{"name":"start_end_timepoint","data_type":"datetime | integer","description":"Start/end dates for intervals. AST* = analysis start, AEN* = analysis end","adam_variables":["ASTDT","ASTTM","ASTDTM","ASTDY","AENDT","AENTM","AENDTM","AENDY"],"category":"Timing"}}
{"type":"node","id":"38","labels":["DataConcept","Timing"],"properties":{"temporal_order":true,"name":"visit","data_type":"string | integer","description":"Analysis visit and timepoint. AVISIT = visit description, ATPT = timepoint description, ATPTREF = reference","adam_variables":["AVISIT","AVISITN","ATPT","ATPTN","ATPTREF"],"category":"Timing"}}
{"type":"node","id":"39","labels":["DataConcept","Timing"],"properties":{"name":"period","data_type":"integer | string","description":"Analysis period and subperiod. APERIOD = period number, APERIODC = description, ASPER = subperiod","adam_variables":["APERIOD","APERIODC","ASPER","ASPERC"],"category":"Timing"}}
{"type":"node","id":"40","labels":["DataConcept","Timing"],"properties":{"examples":["Screening","Run-in","Treatment","Follow-up"],"name":"phase","data_type":"string | integer","description":"Study phase categorization","adam_variables":["APHASE","APHASEN"],"category":"Timing"}}
{"type":"node","id":"41","labels":["DataConcept","Timing"],"properties":{"name":"analysis_window","data_type":"string | numeric","description":"Visit windowing parameters. AWTARGET = target day, AWLO/AWHI = window bounds, AWU = units","adam_variables":["AWRANGE","AWTARGET","AWTDIFF","AWLO","AWHI","AWU"],"category":"Timing"}}
{"type":"node","id":"42","labels":["DataConcept","Timing"],"properties":{"name":"relative_time","data_type":"numeric | string","description":"Relative time from reference point. ARELTM = relative time value, ARELTMU = units","adam_variables":["ARELTM","ARELTMU"],"category":"Timing"}}
{"type":"node","id":"43","labels":["DataConcept","Timing"],"properties":{"name":"period_timing_subject","data_type":"datetime","pattern":"xx = period number (01, 02), w = phase number","description":"Subject-level period/phase start/end timing (ADSL). APxx* = period xx timing, PHw* = phase w timing","adam_variables":["APxxSDT","APxxSTM","APxxSDTM","APxxEDT","APxxETM","APxxEDTM","PHwSDT","PHwSTM","PHwSDTM","PHwEDT","PHwETM","PHwEDTM"],"category":"Timing"}}
{"type":"node","id":"44","labels":["DataConcept","Timing"],"properties":{"name":"period_timing_record","data_type":"datetime","description":"Record-level period/subperiod/phase timing (BDS). APER* = period, ASPR* = subperiod, PH* = phase","adam_variables":["APERSDT","APERSTM","APERSDTM","APEREDT","APERETM","APEREDTM","ASPRSDT","ASPRSTM","ASPRSDTM","ASPREDT","ASPRETM","ASPREDTM","PHSDT","PHSTM","PHSDTM","PHEDT","PHETM","PHEDTM"],"category":"Timing"}}
{"type":"node","id":"45","labels":["DataConcept","Treatment"],"properties":{"name":"treatment_subject","data_type":"string | integer","pattern":"xx = period (01, 02), y = pooling group","description":"Subject-level treatment. TRTxxP/A = planned/actual for period xx, TRxxPGy = pooled group y, TRTSEQ* = treatment sequence","adam_variables":["ARM","ACTARM","TRTxxP","TRTxxPN","TRTxxA","TRTxxAN","TRxxPGy","TRxxPGyN","TRxxAGy","TRxxAGyN","TRTSEQP","TRTSEQPN","TRTSEQA","TRTSEQAN","TSEQPGy","TSEQPGyN","TSEQAGy","TSEQAGyN"],"category":"Treatment"}}
{"type":"node","id":"46","labels":["DataConcept","Treatment"],"properties":{"name":"treatment_record","data_type":"string | integer","pattern":"y = pooling group number","description":"Record-level treatment. TRTP/TRTA = planned/actual treatment for record, TRTPGy/TRTAGy = pooled groups","adam_variables":["TRTP","TRTPN","TRTA","TRTAN","TRTPGy","TRTPGyN","TRTAGy","TRTAGyN"],"category":"Treatment"}}
{"type":"node","id":"47","labels":["DataConcept","Treatment"],"properties":{"name":"dose_subject","data_type":"numeric | string","pattern":"xx = period number","description":"Subject-level dose for period. DOSExxP = planned dose, DOSExxA = actual dose, DOSExxU = units","adam_variables":["DOSExxP","DOSExxA","DOSExxU"],"category":"Treatment"}}
{"type":"node","id":"48","labels":["DataConcept","Treatment"],"properties":{"name":"dose_record","data_type":"numeric | string","description":"Record-level dose. DOSEP/DOSEA = planned/actual dose, DOSCUMP/DOSCUMA = cumulative dose","adam_variables":["DOSEP","DOSEA","DOSEU","DOSCUMP","DOSCUMA"],"category":"Treatment"}}
{"type":"node","id":"49","labels":["DataConcept","Treatment"],"properties":{"name":"treatment_timing","data_type":"datetime","pattern":"xx = period number","description":"Treatment start/end timing. TRTS* = overall start, TRTE* = overall end, TRxx* = period xx timing","adam_variables":["TRTSDT","TRTSTM","TRTSDTM","TRTEDT","TRTETM","TRTEDTM","TRxxSDT","TRxxSTM","TRxxSDTM","TRxxEDT","TRxxETM","TRxxEDTM"],"category":"Treatment"}}
{"type":"node","id":"50","labels":["DataConcept","Treatment"],"properties":{"name":"treatment_duration","data_type":"numeric","pattern":"xx = period number","description":"Treatment duration. *DURD = days, *DURM = months, *DURY = years","adam_variables":["TRTDURD","TRTDURM","TRTDURY","TRxxDURD","TRxxDURM","TRxxDURY"],"category":"Treatment"}}
{"type":"node","id":"51","labels":["DataConcept","Treatment"],"properties":{"name":"treatment_compliance","data_type":"numeric | string","description":"Treatment compliance. TRCMP=compliance value, TRCMPGy=compliance grouping y","adam_variables":["TRCMP","TRCMPGy","TRCMPGyN"],"category":"Treatment"}}
{"type":"node","id":"52","labels":["DataConcept","Flag"],"properties":{"name":"population_flag","data_type":"string (Y/N)","description":"Subject-level population flags. SAFFL=Safety, FASFL=Full Analysis Set, ITTFL=Intent-to-Treat, PPROTFL=Per-Protocol, COMPLFL=Completers, RANDFL=Randomized, ENRLFL=Enrolled","adam_variables":["SAFFL","FASFL","ITTFL","PPROTFL","COMPLFL","RANDFL","ENRLFL"],"category":"Flag"}}
{"type":"node","id":"53","labels":["DataConcept","Flag"],"properties":{"name":"record_population_flag","data_type":"string (Y/N)","description":"Record-level population flags. *RFL = record in population by period, *PFL = record in population by parameter","adam_variables":["ITTRFL","SAFRFL","FASRFL","PPROTRFL","COMPLRFL","ITTPFL","SAFPFL","FASPFL","PPROTPFL","COMPLPFL"],"category":"Flag"}}
{"type":"node","id":"54","labels":["DataConcept","Flag"],"properties":{"name":"record_flag","data_type":"string (Y/N) | integer","pattern":"zz = flag number (01, 02)","description":"Record-level analysis flags. ABLFL=baseline record, ANLzzFL=analysis flag zz, ONTRTFL=on treatment, LVOTFL=last value on treatment","adam_variables":["ABLFL","ABLFN","ANLzzFL","ANLzzFN","ONTRTFL","ONTRTFN","LVOTFL","LVOTFN"],"category":"Flag"}}
{"type":"node","id":"55","labels":["DataConcept","Toxicity_Range"],"properties":{"name":"toxicity_grade","data_type":"string | integer","description":"Toxicity grading. ATOXGR=analysis grade, BTOXGR=baseline grade, *L/*H=low/high direction","adam_variables":["ATOXGR","ATOXGRN","BTOXGR","BTOXGRN","ATOXGRL","ATOXGRLN","ATOXGRH","ATOXGRHN","BTOXGRL","BTOXGRLN","BTOXGRH","BTOXGRHN","ATOXDSCL","ATOXDSCH"],"category":"Toxicity_Range"}}
{"type":"node","id":"56","labels":["DataConcept","Toxicity_Range"],"properties":{"name":"analysis_range","data_type":"string | numeric","pattern":"y = analysis range number","description":"Normal/analysis ranges. ANRIND=normal range indicator, ANRLO/ANRHI=normal bounds, Ay*=analysis range y","adam_variables":["ANRIND","BNRIND","ANRLO","ANRLOC","ANRHI","ANRHIC","AyLO","AyLOC","AyHI","AyHIC","AyIND","ByIND"],"category":"Toxicity_Range"}}
{"type":"node","id":"57","labels":["DataConcept","Time_to_Event"],"properties":{"name":"tte_origin","data_type":"datetime","description":"Time-to-event origin point (when subject entered risk)","adam_variables":["STARTDT","STARTDTM"],"category":"Time_to_Event"}}
{"type":"node","id":"58","labels":["DataConcept","Time_to_Event"],"properties":{"name":"censor","data_type":"integer | string","description":"Censoring indicator. CNSR=0 (event) or 1 (censored), EVNTDESC=event description, CNSDTDSC=censor date description","adam_variables":["CNSR","EVNTDESC","CNSDTDSC"],"category":"Time_to_Event"}}
{"type":"node","id":"59","labels":["DataConcept","Traceability"],"properties":{"name":"source","data_type":"string | integer","description":"Datapoint traceability. SRCDOM=source domain, SRCVAR=source variable, SRCSEQ=source sequence","adam_variables":["SRCDOM","SRCVAR","SRCSEQ"],"category":"Traceability"}}
{"type":"relationship","id":"1152921504606846987","label":"BELONGS_TO_CATEGORY","start":{"id":"11","labels":["DataConcept","Identity"],"properties":{"name":"study","data_type":"string","description":"Clinical study identifier","adam_variables":["STUDYID"],"source":"DM.STUDYID","category":"Identity"}},"end":{"id":"0","labels":["Category"],"properties":{"color":"#D5E8D4","name":"Identity","description":"Core identifiers for study, site, subject"}}}
{"type":"relationship","id":"1152921504606846988","label":"BELONGS_TO_CATEGORY","start":{"id":"12","labels":["DataConcept","Identity"],"properties":{"name":"site","data_type":"string | integer","pattern":"SITEGRy = pooled group y (e.g., SITEGR1, SITEGR2)","description":"Site identifier and pooled site groupings for analysis","adam_variables":["SITEID","SITEGRy","SITEGRyN"],"category":"Identity"}},"end":{"id":"0","labels":["Category"],"properties":{"color":"#D5E8D4","name":"Identity","description":"Core identifiers for study, site, subject"}}}
{"type":"relationship","id":"1152922604118474764","label":"WITHIN","properties":{"description":"Site is within a study"},"start":{"id":"12","labels":["DataConcept","Identity"],"properties":{"name":"site","data_type":"string | integer","pattern":"SITEGRy = pooled group y (e.g., SITEGR1, SITEGR2)","description":"Site identifier and pooled site groupings for analysis","adam_variables":["SITEID","SITEGRy","SITEGRyN"],"category":"Identity"}},"end":{"id":"11","labels":["DataConcept","Identity"],"properties":{"name":"study","data_type":"string","description":"Clinical study identifier","adam_variables":["STUDYID"],"source":"DM.STUDYID","category":"Identity"}}}
{"type":"relationship","id":"1152921504606846989","label":"BELONGS_TO_CATEGORY","start":{"id":"13","labels":["DataConcept","Identity"],"properties":{"examples":["Asia","Europe","North America"],"name":"region","data_type":"string | integer","pattern":"REGIONy = region group y (e.g., REGION1, REGION2)","description":"Geographic region groupings","adam_variables":["REGIONy","REGIONyN"],"category":"Identity"}},"end":{"id":"0","labels":["Category"],"properties":{"color":"#D5E8D4","name":"Identity","description":"Core identifiers for study, site, subject"}}}
{"type":"relationship","id":"1152923703630102541","label":"GROUPS","properties":{"description":"Region groups sites geographically"},"start":{"id":"13","labels":["DataConcept","Identity"],"properties":{"examples":["Asia","Europe","North America"],"name":"region","data_type":"string | integer","pattern":"REGIONy = region group y (e.g., REGION1, REGION2)","description":"Geographic region groupings","adam_variables":["REGIONy","REGIONyN"],"category":"Identity"}},"end":{"id":"12","labels":["DataConcept","Identity"],"properties":{"name":"site","data_type":"string | integer","pattern":"SITEGRy = pooled group y (e.g., SITEGR1, SITEGR2)","description":"Site identifier and pooled site groupings for analysis","adam_variables":["SITEID","SITEGRy","SITEGRyN"],"category":"Identity"}}}
{"type":"relationship","id":"1152921504606846990","label":"BELONGS_TO_CATEGORY","start":{"id":"14","labels":["DataConcept","Identity"],"properties":{"name":"subject","data_type":"string","description":"Unique subject identifier. USUBJID is unique across studies, SUBJID is unique within study.","adam_variables":["USUBJID","SUBJID"],"source":"DM.USUBJID","category":"Identity"}},"end":{"id":"0","labels":["Category"],"properties":{"color":"#D5E8D4","name":"Identity","description":"Core identifiers for study, site, subject"}}}
{"type":"relationship","id":"1152924803141730318","label":"ENROLLED_AT","properties":{"description":"Subject enrolled at site"},"start":{"id":"14","labels":["DataConcept","Identity"],"properties":{"name":"subject","data_type":"string","description":"Unique subject identifier. USUBJID is unique across studies, SUBJID is unique within study.","adam_variables":["USUBJID","SUBJID"],"source":"DM.USUBJID","category":"Identity"}},"end":{"id":"12","labels":["DataConcept","Identity"],"properties":{"name":"site","data_type":"string | integer","pattern":"SITEGRy = pooled group y (e.g., SITEGR1, SITEGR2)","description":"Site identifier and pooled site groupings for analysis","adam_variables":["SITEID","SITEGRy","SITEGRyN"],"category":"Identity"}}}
{"type":"relationship","id":"1152925902653358094","label":"IDENTIFIES","properties":{"sql_inference":"JOIN ON USUBJID","description":"Subject identifier for values"},"start":{"id":"14","labels":["DataConcept","Identity"],"properties":{"name":"subject","data_type":"string","description":"Unique subject identifier. USUBJID is unique across studies, SUBJID is unique within study.","adam_variables":["USUBJID","SUBJID"],"source":"DM.USUBJID","category":"Identity"}},"end":{"id":"26","labels":["DataConcept","Value"],"properties":{"name":"analysis_value","data_type":"numeric | string","pattern":"AVALCATy = analysis value category y","description":"Analysis value for parameter. AVAL = numeric, AVALC = character, AVALCATy = categorization","adam_variables":["AVAL","AVALC","AVALCATy","AVALCAyN"],"category":"Value"}}}
{"type":"relationship","id":"6917533425687593005","label":"IDENTIFIES","properties":{"description":"Subject identifier for treatment"},"start":{"id":"14","labels":["DataConcept","Identity"],"properties":{"name":"subject","data_type":"string","description":"Unique subject identifier. USUBJID is unique across studies, SUBJID is unique within study.","adam_variables":["USUBJID","SUBJID"],"source":"DM.USUBJID","category":"Identity"}},"end":{"id":"45","labels":["DataConcept","Treatment"],"properties":{"name":"treatment_subject","data_type":"string | integer","pattern":"xx = period (01, 02), y = pooling group","description":"Subject-level treatment. TRTxxP/A = planned/actual for period xx, TRxxPGy = pooled group y, TRTSEQ* = treatment sequence","adam_variables":["ARM","ACTARM","TRTxxP","TRTxxPN","TRTxxA","TRTxxAN","TRxxPGy","TRxxPGyN","TRxxAGy","TRxxAGyN","TRTSEQP","TRTSEQPN","TRTSEQA","TRTSEQAN","TSEQPGy","TSEQPGyN","TSEQAGy","TSEQAGyN"],"category":"Treatment"}}}
{"type":"relationship","id":"1152921504606846991","label":"BELONGS_TO_CATEGORY","start":{"id":"15","labels":["DataConcept","Identity"],"properties":{"name":"sequence","data_type":"integer","description":"Analysis sequence number to ensure uniqueness within dataset","adam_variables":["ASEQ"],"category":"Identity"}},"end":{"id":"0","labels":["Category"],"properties":{"color":"#D5E8D4","name":"Identity","description":"Core identifiers for study, site, subject"}}}
{"type":"relationship","id":"1152927002164985871","label":"UNIQUELY_IDENTIFIES","properties":{"description":"ASEQ ensures uniqueness"},"start":{"id":"15","labels":["DataConcept","Identity"],"properties":{"name":"sequence","data_type":"integer","description":"Analysis sequence number to ensure uniqueness within dataset","adam_variables":["ASEQ"],"category":"Identity"}},"end":{"id":"26","labels":["DataConcept","Value"],"properties":{"name":"analysis_value","data_type":"numeric | string","pattern":"AVALCATy = analysis value category y","description":"Analysis value for parameter. AVAL = numeric, AVALC = character, AVALCATy = categorization","adam_variables":["AVAL","AVALC","AVALCATy","AVALCAyN"],"category":"Value"}}}
{"type":"relationship","id":"1152921504606846992","label":"BELONGS_TO_CATEGORY","start":{"id":"16","labels":["DataConcept","Identity"],"properties":{"name":"disposition","data_type":"string | datetime","pattern":"xx = period number","description":"Trial disposition. EOS*=end of study, EOT*=end of treatment, EOP*=end of period, DC*=discontinuation reason","adam_variables":["EOSSTT","EOSDT","DCSREAS","DCSREASP","EOTSTT","DCTREAS","DCTREASP","EOTxxSTT","DCTxxRS","DCTxxRSP","EOPxxSTT","DCPxxRS","DCPxxRSP"],"category":"Identity"}},"end":{"id":"0","labels":["Category"],"properties":{"color":"#D5E8D4","name":"Identity","description":"Core identifiers for study, site, subject"}}}
{"type":"relationship","id":"1152928101676613648","label":"CHARACTERIZES","properties":{"description":"Disposition characterizes subject trial status"},"start":{"id":"16","labels":["DataConcept","Identity"],"properties":{"name":"disposition","data_type":"string | datetime","pattern":"xx = period number","description":"Trial disposition. EOS*=end of study, EOT*=end of treatment, EOP*=end of period, DC*=discontinuation reason","adam_variables":["EOSSTT","EOSDT","DCSREAS","DCSREASP","EOTSTT","DCTREAS","DCTREASP","EOTxxSTT","DCTxxRS","DCTxxRSP","EOPxxSTT","DCPxxRS","DCPxxRSP"],"category":"Identity"}},"end":{"id":"14","labels":["DataConcept","Identity"],"properties":{"name":"subject","data_type":"string","description":"Unique subject identifier. USUBJID is unique across studies, SUBJID is unique within study.","adam_variables":["USUBJID","SUBJID"],"source":"DM.USUBJID","category":"Identity"}}}
{"type":"relationship","id":"1152921504606846993","label":"BELONGS_TO_CATEGORY","start":{"id":"17","labels":["DataConcept","Identity"],"properties":{"name":"milestone_date","data_type":"datetime","pattern":"y = milestone occurrence number","description":"Key milestone dates. RFICDT=informed consent, ENRLDT=enrollment, RANDDT=randomization, LSTALVDT=last known alive, DTHDT=death","adam_variables":["RFICDT","ENRLDT","RANDDT","RFICyDT","ENRLyDT","RANDyDT","LSTALVDT","DTHDT"],"category":"Identity"}},"end":{"id":"0","labels":["Category"],"properties":{"color":"#D5E8D4","name":"Identity","description":"Core identifiers for study, site, subject"}}}
{"type":"relationship","id":"1152928101676613649","label":"CHARACTERIZES","properties":{"description":"Milestone dates characterize subject timeline"},"start":{"id":"17","labels":["DataConcept","Identity"],"properties":{"name":"milestone_date","data_type":"datetime","pattern":"y = milestone occurrence number","description":"Key milestone dates. RFICDT=informed consent, ENRLDT=enrollment, RANDDT=randomization, LSTALVDT=last known alive, DTHDT=death","adam_variables":["RFICDT","ENRLDT","RANDDT","RFICyDT","ENRLyDT","RANDyDT","LSTALVDT","DTHDT"],"category":"Identity"}},"end":{"id":"14","labels":["DataConcept","Identity"],"properties":{"name":"subject","data_type":"string","description":"Unique subject identifier. USUBJID is unique across studies, SUBJID is unique within study.","adam_variables":["USUBJID","SUBJID"],"source":"DM.USUBJID","category":"Identity"}}}
{"type":"relationship","id":"1152921504606846994","label":"BELONGS_TO_CATEGORY","start":{"id":"18","labels":["DataConcept","Identity"],"properties":{"name":"death","data_type":"datetime | string | integer","description":"Death information. DTHDT=death date, DTHCAUS=cause, DTHCGRy=cause grouping y","adam_variables":["DTHDT","DTHDTF","DTHCAUS","DTHCAUSN","DTHCGRy","DTHCGRyN"],"category":"Identity"}},"end":{"id":"0","labels":["Category"],"properties":{"color":"#D5E8D4","name":"Identity","description":"Core identifiers for study, site, subject"}}}
{"type":"relationship","id":"1152928101676613650","label":"CHARACTERIZES","properties":{"description":"Death information characterizes subject"},"start":{"id":"18","labels":["DataConcept","Identity"],"properties":{"name":"death","data_type":"datetime | string | integer","description":"Death information. DTHDT=death date, DTHCAUS=cause, DTHCGRy=cause grouping y","adam_variables":["DTHDT","DTHDTF","DTHCAUS","DTHCAUSN","DTHCGRy","DTHCGRyN"],"category":"Identity"}},"end":{"id":"14","labels":["DataConcept","Identity"],"properties":{"name":"subject","data_type":"string","description":"Unique subject identifier. USUBJID is unique across studies, SUBJID is unique within study.","adam_variables":["USUBJID","SUBJID"],"source":"DM.USUBJID","category":"Identity"}}}
{"type":"relationship","id":"1152921504606846995","label":"BELONGS_TO_CATEGORY","start":{"id":"19","labels":["DataConcept","Identity"],"properties":{"name":"stratification","data_type":"string | integer","pattern":"w = stratification factor number","description":"Stratification factors. STRATAR=randomized stratum, STRATwR=stratum w randomized, STRATwV=stratum w value","adam_variables":["STRATAR","STRATARN","STRATwD","STRATwR","STRATwRN","STRATAV","STRATAVN","STRATwV","STRATwVN"],"category":"Identity"}},"end":{"id":"0","labels":["Category"],"properties":{"color":"#D5E8D4","name":"Identity","description":"Core identifiers for study, site, subject"}}}
{"type":"relationship","id":"1152928101676613651","label":"CHARACTERIZES","properties":{"description":"Stratification factors characterize subject"},"start":{"id":"19","labels":["DataConcept","Identity"],"properties":{"name":"stratification","data_type":"string | integer","pattern":"w = stratification factor number","description":"Stratification factors. STRATAR=randomized stratum, STRATwR=stratum w randomized, STRATwV=stratum w value","adam_variables":["STRATAR","STRATARN","STRATwD","STRATwR","STRATwRN","STRATAV","STRATAVN","STRATwV","STRATwVN"],"category":"Identity"}},"end":{"id":"14","labels":["DataConcept","Identity"],"properties":{"name":"subject","data_type":"string","description":"Unique subject identifier. USUBJID is unique across studies, SUBJID is unique within study.","adam_variables":["USUBJID","SUBJID"],"source":"DM.USUBJID","category":"Identity"}}}
{"type":"relationship","id":"1152921504606846996","label":"BELONGS_TO_CATEGORY","start":{"id":"20","labels":["DataConcept","Demographics"],"properties":{"name":"age","data_type":"integer | string","pattern":"AGEGRy = age group y (e.g., AGEGR1, AGEGR2)","description":"Subject age and age groupings. AAGE = derived analysis age, AGEGRy = age group y","adam_variables":["AGE","AGEU","AAGE","AGEGRy","AGEGRyN"],"category":"Demographics"}},"end":{"id":"1","labels":["Category"],"properties":{"color":"#FFE6CC","name":"Demographics","description":"Subject demographic characteristics"}}}
{"type":"relationship","id":"1152928101676613652","label":"CHARACTERIZES","properties":{"description":"Age is a demographic of subject"},"start":{"id":"20","labels":["DataConcept","Demographics"],"properties":{"name":"age","data_type":"integer | string","pattern":"AGEGRy = age group y (e.g., AGEGR1, AGEGR2)","description":"Subject age and age groupings. AAGE = derived analysis age, AGEGRy = age group y","adam_variables":["AGE","AGEU","AAGE","AGEGRy","AGEGRyN"],"category":"Demographics"}},"end":{"id":"14","labels":["DataConcept","Identity"],"properties":{"name":"subject","data_type":"string","description":"Unique subject identifier. USUBJID is unique across studies, SUBJID is unique within study.","adam_variables":["USUBJID","SUBJID"],"source":"DM.USUBJID","category":"Identity"}}}
{"type":"relationship","id":"1152921504606846997","label":"BELONGS_TO_CATEGORY","start":{"id":"21","labels":["DataConcept","Demographics"],"properties":{"name":"sex","data_type":"string","description":"Subject sex","adam_variables":["SEX"],"source":"DM.SEX","category":"Demographics"}},"end":{"id":"1","labels":["Category"],"properties":{"color":"#FFE6CC","name":"Demographics","description":"Subject demographic characteristics"}}}
{"type":"relationship","id":"1152928101676613653","label":"CHARACTERIZES","properties":{"description":"Sex is a demographic of subject"},"start":{"id":"21","labels":["DataConcept","Demographics"],"properties":{"name":"sex","data_type":"string","description":"Subject sex","adam_variables":["SEX"],"source":"DM.SEX","category":"Demographics"}},"end":{"id":"14","labels":["DataConcept","Identity"],"properties":{"name":"subject","data_type":"string","description":"Unique subject identifier. USUBJID is unique across studies, SUBJID is unique within study.","adam_variables":["USUBJID","SUBJID"],"source":"DM.USUBJID","category":"Identity"}}}
{"type":"relationship","id":"1152921504606846998","label":"BELONGS_TO_CATEGORY","start":{"id":"22","labels":["DataConcept","Demographics"],"properties":{"name":"race","data_type":"string | integer","pattern":"RACEGRy = race group y (e.g., RACEGR1, RACEGR2)","description":"Subject race and race groupings","adam_variables":["RACE","RACEGRy","RACEGRyN"],"category":"Demographics"}},"end":{"id":"1","labels":["Category"],"properties":{"color":"#FFE6CC","name":"Demographics","description":"Subject demographic characteristics"}}}
{"type":"relationship","id":"1152928101676613654","label":"CHARACTERIZES","properties":{"description":"Race is a demographic of subject"},"start":{"id":"22","labels":["DataConcept","Demographics"],"properties":{"name":"race","data_type":"string | integer","pattern":"RACEGRy = race group y (e.g., RACEGR1, RACEGR2)","description":"Subject race and race groupings","adam_variables":["RACE","RACEGRy","RACEGRyN"],"category":"Demographics"}},"end":{"id":"14","labels":["DataConcept","Identity"],"properties":{"name":"subject","data_type":"string","description":"Unique subject identifier. USUBJID is unique across studies, SUBJID is unique within study.","adam_variables":["USUBJID","SUBJID"],"source":"DM.USUBJID","category":"Identity"}}}
{"type":"relationship","id":"1152921504606846999","label":"BELONGS_TO_CATEGORY","start":{"id":"23","labels":["DataConcept","Parameter"],"properties":{"name":"parameter","data_type":"string | integer","pattern":"PARCATy = parameter category y for grouping","description":"Analysis parameter and categorizations. PARAMCD limited to 8 characters.","adam_variables":["PARAM","PARAMCD","PARAMN","PARCATy","PARCATyN"],"category":"Parameter"}},"end":{"id":"2","labels":["Category"],"properties":{"color":"#DAE8FC","name":"Parameter","description":"Analysis parameter definitions"}}}
{"type":"relationship","id":"1152929201188241431","label":"SCOPES","properties":{"sql_inference":"PARTITION BY PARAMCD","description":"Parameter defines scope of value"},"start":{"id":"23","labels":["DataConcept","Parameter"],"properties":{"name":"parameter","data_type":"string | integer","pattern":"PARCATy = parameter category y for grouping","description":"Analysis parameter and categorizations. PARAMCD limited to 8 characters.","adam_variables":["PARAM","PARAMCD","PARAMN","PARCATy","PARCATyN"],"category":"Parameter"}},"end":{"id":"26","labels":["DataConcept","Value"],"properties":{"name":"analysis_value","data_type":"numeric | string","pattern":"AVALCATy = analysis value category y","description":"Analysis value for parameter. AVAL = numeric, AVALC = character, AVALCATy = categorization","adam_variables":["AVAL","AVALC","AVALCATy","AVALCAyN"],"category":"Value"}}}
{"type":"relationship","id":"6917536724222476315","label":"SCOPES","properties":{"description":"Parameter defines scope of baseline"},"start":{"id":"23","labels":["DataConcept","Parameter"],"properties":{"name":"parameter","data_type":"string | integer","pattern":"PARCATy = parameter category y for grouping","description":"Analysis parameter and categorizations. PARAMCD limited to 8 characters.","adam_variables":["PARAM","PARAMCD","PARAMN","PARCATy","PARCATyN"],"category":"Parameter"}},"end":{"id":"27","labels":["DataConcept","Value"],"properties":{"name":"baseline_value","data_type":"numeric | string","pattern":"BASECATy = baseline category y","description":"Subject baseline value. BASE = numeric, BASEC = character, BASECATy = categorization","adam_variables":["BASE","BASEC","BASECATy","BASECAyN"],"category":"Value"}}}
{"type":"relationship","id":"6917536724222476316","label":"SCOPES","properties":{"description":"Parameter defines scope of change"},"start":{"id":"23","labels":["DataConcept","Parameter"],"properties":{"name":"parameter","data_type":"string | integer","pattern":"PARCATy = parameter category y for grouping","description":"Analysis parameter and categorizations. PARAMCD limited to 8 characters.","adam_variables":["PARAM","PARAMCD","PARAMN","PARCATy","PARCATyN"],"category":"Parameter"}},"end":{"id":"28","labels":["DataConcept","Value"],"properties":{"name":"change_value","data_type":"numeric | string","description":"Change from/to baseline. CHG = AVAL - BASE (from baseline), BCHG = BASE - AVAL (to baseline)","adam_variables":["CHG","CHGCATy","CHGCATyN","BCHG","BCHGCATy","BCHGCAyN"],"formula":"CHG = AVAL - BASE","category":"Value"}}}
{"type":"relationship","id":"6917536724222476317","label":"SCOPES","properties":{"description":"Parameter defines scope of percent change"},"start":{"id":"23","labels":["DataConcept","Parameter"],"properties":{"name":"parameter","data_type":"string | integer","pattern":"PARCATy = parameter category y for grouping","description":"Analysis parameter and categorizations. PARAMCD limited to 8 characters.","adam_variables":["PARAM","PARAMCD","PARAMN","PARCATy","PARCATyN"],"category":"Parameter"}},"end":{"id":"29","labels":["DataConcept","Value"],"properties":{"name":"percent_change","data_type":"numeric | string","description":"Percent change from/to baseline. PCHG = ((AVAL-BASE)/BASE)*100","adam_variables":["PCHG","PCHGCATy","PCHGCAyN","PBCHG","PBCHGCAy","PBCHGCyN"],"formula":"PCHG = ((AVAL - BASE) / BASE) * 100","category":"Value"}}}
{"type":"relationship","id":"6917536724222476318","label":"SCOPES","properties":{"description":"Parameter defines scope of ratio"},"start":{"id":"23","labels":["DataConcept","Parameter"],"properties":{"name":"parameter","data_type":"string | integer","pattern":"PARCATy = parameter category y for grouping","description":"Analysis parameter and categorizations. PARAMCD limited to 8 characters.","adam_variables":["PARAM","PARAMCD","PARAMN","PARCATy","PARCATyN"],"category":"Parameter"}},"end":{"id":"30","labels":["DataConcept","Value"],"properties":{"name":"ratio_value","data_type":"numeric","description":"Ratio to reference value. R2BASE = AVAL/BASE, R2AyLO = ratio to lower limit, R2AyHI = ratio to upper limit","adam_variables":["R2BASE","R2AyLO","R2AyHI"],"formula":"R2BASE = AVAL / BASE","category":"Value"}}}
{"type":"relationship","id":"6917536724222476319","label":"SCOPES","properties":{"description":"Parameter defines scope of shift"},"start":{"id":"23","labels":["DataConcept","Parameter"],"properties":{"name":"parameter","data_type":"string | integer","pattern":"PARCATy = parameter category y for grouping","description":"Analysis parameter and categorizations. PARAMCD limited to 8 characters.","adam_variables":["PARAM","PARAMCD","PARAMN","PARCATy","PARCATyN"],"category":"Parameter"}},"end":{"id":"31","labels":["DataConcept","Value"],"properties":{"name":"shift_value","data_type":"string | integer","pattern":"SHIFTy = shift group y","description":"Shift between defined pairings (e.g., Normal→High, Low→Normal)","adam_variables":["SHIFTy","SHIFTyN"],"category":"Value"}}}
{"type":"relationship","id":"1152921504606847000","label":"BELONGS_TO_CATEGORY","start":{"id":"24","labels":["DataConcept","Parameter"],"properties":{"name":"criteria","data_type":"string | boolean","pattern":"CRITy/MCRITy where y = criterion number","description":"Analysis parameter criteria. CRITy = criterion definition, CRITyFL = criterion met flag, MCRITy = multiple criteria","adam_variables":["CRITy","CRITyFL","CRITyFN","MCRITy","MCRITyML","MCRITyMN"],"category":"Parameter"}},"end":{"id":"2","labels":["Category"],"properties":{"color":"#DAE8FC","name":"Parameter","description":"Analysis parameter definitions"}}}
{"type":"relationship","id":"1152922604118474776","label":"WITHIN","properties":{"description":"Criteria defined within parameter scope"},"start":{"id":"24","labels":["DataConcept","Parameter"],"properties":{"name":"criteria","data_type":"string | boolean","pattern":"CRITy/MCRITy where y = criterion number","description":"Analysis parameter criteria. CRITy = criterion definition, CRITyFL = criterion met flag, MCRITy = multiple criteria","adam_variables":["CRITy","CRITyFL","CRITyFN","MCRITy","MCRITyML","MCRITyMN"],"category":"Parameter"}},"end":{"id":"23","labels":["DataConcept","Parameter"],"properties":{"name":"parameter","data_type":"string | integer","pattern":"PARCATy = parameter category y for grouping","description":"Analysis parameter and categorizations. PARAMCD limited to 8 characters.","adam_variables":["PARAM","PARAMCD","PARAMN","PARCATy","PARCATyN"],"category":"Parameter"}}}
{"type":"relationship","id":"1152930300699869208","label":"EVALUATES","properties":{"description":"Criteria evaluates analysis value"},"start":{"id":"24","labels":["DataConcept","Parameter"],"properties":{"name":"criteria","data_type":"string | boolean","pattern":"CRITy/MCRITy where y = criterion number","description":"Analysis parameter criteria. CRITy = criterion definition, CRITyFL = criterion met flag, MCRITy = multiple criteria","adam_variables":["CRITy","CRITyFL","CRITyFN","MCRITy","MCRITyML","MCRITyMN"],"category":"Parameter"}},"end":{"id":"26","labels":["DataConcept","Value"],"properties":{"name":"analysis_value","data_type":"numeric | string","pattern":"AVALCATy = analysis value category y","description":"Analysis value for parameter. AVAL = numeric, AVALC = character, AVALCATy = categorization","adam_variables":["AVAL","AVALC","AVALCATy","AVALCAyN"],"category":"Value"}}}
{"type":"relationship","id":"1152921504606847001","label":"BELONGS_TO_CATEGORY","start":{"id":"25","labels":["DataConcept","Value"],"properties":{"name":"observation_value","data_type":"any","description":"Raw/collected observation value from SDTM source domains. Not stored directly in ADaM but is the source for AVAL.","adam_variables":["SDTM.--ORRES","SDTM.--STRESN","SDTM.--STRESC"],"source":"SDTM domains","category":"Value"}},"end":{"id":"3","labels":["Category"],"properties":{"color":"#CCE5FF","name":"Value","description":"Observation and analysis values"}}}
{"type":"relationship","id":"1152931400211496985","label":"BELONGS_TO","properties":{"sql_inference":"JOIN ON USUBJID","description":"Observation belongs to subject"},"start":{"id":"25","labels":["DataConcept","Value"],"properties":{"name":"observation_value","data_type":"any","description":"Raw/collected observation value from SDTM source domains. Not stored directly in ADaM but is the source for AVAL.","adam_variables":["SDTM.--ORRES","SDTM.--STRESN","SDTM.--STRESC"],"source":"SDTM domains","category":"Value"}},"end":{"id":"14","labels":["DataConcept","Identity"],"properties":{"name":"subject","data_type":"string","description":"Unique subject identifier. USUBJID is unique across studies, SUBJID is unique within study.","adam_variables":["USUBJID","SUBJID"],"source":"DM.USUBJID","category":"Identity"}}}
{"type":"relationship","id":"1152932499723124761","label":"OCCURS_AT","properties":{"sql_inference":"ORDER BY ADT","description":"Observation occurs at timepoint"},"start":{"id":"25","labels":["DataConcept","Value"],"properties":{"name":"observation_value","data_type":"any","description":"Raw/collected observation value from SDTM source domains. Not stored directly in ADaM but is the source for AVAL.","adam_variables":["SDTM.--ORRES","SDTM.--STRESN","SDTM.--STRESC"],"source":"SDTM domains","category":"Value"}},"end":{"id":"36","labels":["DataConcept","Timing"],"properties":{"temporal_order":true,"name":"timepoint","data_type":"datetime | integer","description":"Analysis date/time/day. ADT = analysis date, ATM = analysis time, ADTM = datetime, ADY = relative day","adam_variables":["ADT","ATM","ADTM","ADY"],"category":"Timing"}}}
{"type":"relationship","id":"1152933599234752537","label":"SCOPED_BY","properties":{"sql_inference":"PARTITION BY PARAMCD","description":"Observation scoped by parameter"},"start":{"id":"25","labels":["DataConcept","Value"],"properties":{"name":"observation_value","data_type":"any","description":"Raw/collected observation value from SDTM source domains. Not stored directly in ADaM but is the source for AVAL.","adam_variables":["SDTM.--ORRES","SDTM.--STRESN","SDTM.--STRESC"],"source":"SDTM domains","category":"Value"}},"end":{"id":"23","labels":["DataConcept","Parameter"],"properties":{"name":"parameter","data_type":"string | integer","pattern":"PARCATy = parameter category y for grouping","description":"Analysis parameter and categorizations. PARAMCD limited to 8 characters.","adam_variables":["PARAM","PARAMCD","PARAMN","PARCATy","PARCATyN"],"category":"Parameter"}}}
{"type":"relationship","id":"1152921504606847002","label":"BELONGS_TO_CATEGORY","start":{"id":"26","labels":["DataConcept","Value"],"properties":{"name":"analysis_value","data_type":"numeric | string","pattern":"AVALCATy = analysis value category y","description":"Analysis value for parameter. AVAL = numeric, AVALC = character, AVALCATy = categorization","adam_variables":["AVAL","AVALC","AVALCATy","AVALCAyN"],"category":"Value"}},"end":{"id":"3","labels":["Category"],"properties":{"color":"#CCE5FF","name":"Value","description":"Observation and analysis values"}}}
{"type":"relationship","id":"1152931400211496986","label":"BELONGS_TO","properties":{"sql_inference":"JOIN ON USUBJID","description":"Analysis value belongs to subject"},"start":{"id":"26","labels":["DataConcept","Value"],"properties":{"name":"analysis_value","data_type":"numeric | string","pattern":"AVALCATy = analysis value category y","description":"Analysis value for parameter. AVAL = numeric, AVALC = character, AVALCATy = categorization","adam_variables":["AVAL","AVALC","AVALCATy","AVALCAyN"],"category":"Value"}},"end":{"id":"14","labels":["DataConcept","Identity"],"properties":{"name":"subject","data_type":"string","description":"Unique subject identifier. USUBJID is unique across studies, SUBJID is unique within study.","adam_variables":["USUBJID","SUBJID"],"source":"DM.USUBJID","category":"Identity"}}}
{"type":"relationship","id":"6919791822571044900","label":"OCCURS_AT","properties":{"sql_inference":"ORDER BY ADT","description":"Analysis value occurs at timepoint"},"start":{"id":"26","labels":["DataConcept","Value"],"properties":{"name":"analysis_value","data_type":"numeric | string","pattern":"AVALCATy = analysis value category y","description":"Analysis value for parameter. AVAL = numeric, AVALC = character, AVALCATy = categorization","adam_variables":["AVAL","AVALC","AVALCATy","AVALCAyN"],"category":"Value"}},"end":{"id":"36","labels":["DataConcept","Timing"],"properties":{"temporal_order":true,"name":"timepoint","data_type":"datetime | integer","description":"Analysis date/time/day. ADT = analysis date, ATM = analysis time, ADTM = datetime, ADY = relative day","adam_variables":["ADT","ATM","ADTM","ADY"],"category":"Timing"}}}
{"type":"relationship","id":"1152933599234752538","label":"SCOPED_BY","properties":{"sql_inference":"PARTITION BY PARAMCD","description":"Analysis value scoped by parameter"},"start":{"id":"26","labels":["DataConcept","Value"],"properties":{"name":"analysis_value","data_type":"numeric | string","pattern":"AVALCATy = analysis value category y","description":"Analysis value for parameter. AVAL = numeric, AVALC = character, AVALCATy = categorization","adam_variables":["AVAL","AVALC","AVALCATy","AVALCAyN"],"category":"Value"}},"end":{"id":"23","labels":["DataConcept","Parameter"],"properties":{"name":"parameter","data_type":"string | integer","pattern":"PARCATy = parameter category y for grouping","description":"Analysis parameter and categorizations. PARAMCD limited to 8 characters.","adam_variables":["PARAM","PARAMCD","PARAMN","PARCATy","PARCATyN"],"category":"Parameter"}}}
{"type":"relationship","id":"1152934698746380314","label":"DERIVED_FROM","properties":{"description":"Analysis value derived from observation"},"start":{"id":"26","labels":["DataConcept","Value"],"properties":{"name":"analysis_value","data_type":"numeric | string","pattern":"AVALCATy = analysis value category y","description":"Analysis value for parameter. AVAL = numeric, AVALC = character, AVALCATy = categorization","adam_variables":["AVAL","AVALC","AVALCATy","AVALCAyN"],"category":"Value"}},"end":{"id":"25","labels":["DataConcept","Value"],"properties":{"name":"observation_value","data_type":"any","description":"Raw/collected observation value from SDTM source domains. Not stored directly in ADaM but is the source for AVAL.","adam_variables":["SDTM.--ORRES","SDTM.--STRESN","SDTM.--STRESC"],"source":"SDTM domains","category":"Value"}}}
{"type":"relationship","id":"1152921504606847003","label":"BELONGS_TO_CATEGORY","start":{"id":"27","labels":["DataConcept","Value"],"properties":{"name":"baseline_value","data_type":"numeric | string","pattern":"BASECATy = baseline category y","description":"Subject baseline value. BASE = numeric, BASEC = character, BASECATy = categorization","adam_variables":["BASE","BASEC","BASECATy","BASECAyN"],"category":"Value"}},"end":{"id":"3","labels":["Category"],"properties":{"color":"#CCE5FF","name":"Value","description":"Observation and analysis values"}}}
{"type":"relationship","id":"1152931400211496987","label":"BELONGS_TO","properties":{"description":"Baseline belongs to subject"},"start":{"id":"27","labels":["DataConcept","Value"],"properties":{"name":"baseline_value","data_type":"numeric | string","pattern":"BASECATy = baseline category y","description":"Subject baseline value. BASE = numeric, BASEC = character, BASECATy = categorization","adam_variables":["BASE","BASEC","BASECATy","BASECAyN"],"category":"Value"}},"end":{"id":"14","labels":["DataConcept","Identity"],"properties":{"name":"subject","data_type":"string","description":"Unique subject identifier. USUBJID is unique across studies, SUBJID is unique within study.","adam_variables":["USUBJID","SUBJID"],"source":"DM.USUBJID","category":"Identity"}}}
{"type":"relationship","id":"1152934698746380315","label":"DERIVED_FROM","properties":{"description":"Baseline selected from analysis values"},"start":{"id":"27","labels":["DataConcept","Value"],"properties":{"name":"baseline_value","data_type":"numeric | string","pattern":"BASECATy = baseline category y","description":"Subject baseline value. BASE = numeric, BASEC = character, BASECATy = categorization","adam_variables":["BASE","BASEC","BASECATy","BASECAyN"],"category":"Value"}},"end":{"id":"26","labels":["DataConcept","Value"],"properties":{"name":"analysis_value","data_type":"numeric | string","pattern":"AVALCATy = analysis value category y","description":"Analysis value for parameter. AVAL = numeric, AVALC = character, AVALCATy = categorization","adam_variables":["AVAL","AVALC","AVALCATy","AVALCAyN"],"category":"Value"}}}
{"type":"relationship","id":"1152921504606847004","label":"BELONGS_TO_CATEGORY","start":{"id":"28","labels":["DataConcept","Value"],"properties":{"name":"change_value","data_type":"numeric | string","description":"Change from/to baseline. CHG = AVAL - BASE (from baseline), BCHG = BASE - AVAL (to baseline)","adam_variables":["CHG","CHGCATy","CHGCATyN","BCHG","BCHGCATy","BCHGCAyN"],"formula":"CHG = AVAL - BASE","category":"Value"}},"end":{"id":"3","labels":["Category"],"properties":{"color":"#CCE5FF","name":"Value","description":"Observation and analysis values"}}}
{"type":"relationship","id":"1152931400211496988","label":"BELONGS_TO","properties":{"description":"Change belongs to subject"},"start":{"id":"28","labels":["DataConcept","Value"],"properties":{"name":"change_value","data_type":"numeric | string","description":"Change from/to baseline. CHG = AVAL - BASE (from baseline), BCHG = BASE - AVAL (to baseline)","adam_variables":["CHG","CHGCATy","CHGCATyN","BCHG","BCHGCATy","BCHGCAyN"],"formula":"CHG = AVAL - BASE","category":"Value"}},"end":{"id":"14","labels":["DataConcept","Identity"],"properties":{"name":"subject","data_type":"string","description":"Unique subject identifier. USUBJID is unique across studies, SUBJID is unique within study.","adam_variables":["USUBJID","SUBJID"],"source":"DM.USUBJID","category":"Identity"}}}
{"type":"relationship","id":"1152932499723124764","label":"OCCURS_AT","properties":{"description":"Change occurs at timepoint"},"start":{"id":"28","labels":["DataConcept","Value"],"properties":{"name":"change_value","data_type":"numeric | string","description":"Change from/to baseline. CHG = AVAL - BASE (from baseline), BCHG = BASE - AVAL (to baseline)","adam_variables":["CHG","CHGCATy","CHGCATyN","BCHG","BCHGCATy","BCHGCAyN"],"formula":"CHG = AVAL - BASE","category":"Value"}},"end":{"id":"36","labels":["DataConcept","Timing"],"properties":{"temporal_order":true,"name":"timepoint","data_type":"datetime | integer","description":"Analysis date/time/day. ADT = analysis date, ATM = analysis time, ADTM = datetime, ADY = relative day","adam_variables":["ADT","ATM","ADTM","ADY"],"category":"Timing"}}}
{"type":"relationship","id":"1152934698746380316","label":"DERIVED_FROM","properties":{"description":"Change computed from analysis value","formula":"CHG = AVAL - BASE"},"start":{"id":"28","labels":["DataConcept","Value"],"properties":{"name":"change_value","data_type":"numeric | string","description":"Change from/to baseline. CHG = AVAL - BASE (from baseline), BCHG = BASE - AVAL (to baseline)","adam_variables":["CHG","CHGCATy","CHGCATyN","BCHG","BCHGCATy","BCHGCAyN"],"formula":"CHG = AVAL - BASE","category":"Value"}},"end":{"id":"26","labels":["DataConcept","Value"],"properties":{"name":"analysis_value","data_type":"numeric | string","pattern":"AVALCATy = analysis value category y","description":"Analysis value for parameter. AVAL = numeric, AVALC = character, AVALCATy = categorization","adam_variables":["AVAL","AVALC","AVALCATy","AVALCAyN"],"category":"Value"}}}
{"type":"relationship","id":"1155186498560065564","label":"DERIVED_FROM","properties":{"description":"Change computed using baseline","formula":"CHG = AVAL - BASE"},"start":{"id":"28","labels":["DataConcept","Value"],"properties":{"name":"change_value","data_type":"numeric | string","description":"Change from/to baseline. CHG = AVAL - BASE (from baseline), BCHG = BASE - AVAL (to baseline)","adam_variables":["CHG","CHGCATy","CHGCATyN","BCHG","BCHGCATy","BCHGCAyN"],"formula":"CHG = AVAL - BASE","category":"Value"}},"end":{"id":"27","labels":["DataConcept","Value"],"properties":{"name":"baseline_value","data_type":"numeric | string","pattern":"BASECATy = baseline category y","description":"Subject baseline value. BASE = numeric, BASEC = character, BASECATy = categorization","adam_variables":["BASE","BASEC","BASECATy","BASECAyN"],"category":"Value"}}}
{"type":"relationship","id":"1152921504606847005","label":"BELONGS_TO_CATEGORY","start":{"id":"29","labels":["DataConcept","Value"],"properties":{"name":"percent_change","data_type":"numeric | string","description":"Percent change from/to baseline. PCHG = ((AVAL-BASE)/BASE)*100","adam_variables":["PCHG","PCHGCATy","PCHGCAyN","PBCHG","PBCHGCAy","PBCHGCyN"],"formula":"PCHG = ((AVAL - BASE) / BASE) * 100","category":"Value"}},"end":{"id":"3","labels":["Category"],"properties":{"color":"#CCE5FF","name":"Value","description":"Observation and analysis values"}}}
{"type":"relationship","id":"1152931400211496989","label":"BELONGS_TO","properties":{"description":"Percent change belongs to subject"},"start":{"id":"29","labels":["DataConcept","Value"],"properties":{"name":"percent_change","data_type":"numeric | string","description":"Percent change from/to baseline. PCHG = ((AVAL-BASE)/BASE)*100","adam_variables":["PCHG","PCHGCATy","PCHGCAyN","PBCHG","PBCHGCAy","PBCHGCyN"],"formula":"PCHG = ((AVAL - BASE) / BASE) * 100","category":"Value"}},"end":{"id":"14","labels":["DataConcept","Identity"],"properties":{"name":"subject","data_type":"string","description":"Unique subject identifier. USUBJID is unique across studies, SUBJID is unique within study.","adam_variables":["USUBJID","SUBJID"],"source":"DM.USUBJID","category":"Identity"}}}
{"type":"relationship","id":"1152932499723124765","label":"OCCURS_AT","properties":{"description":"Percent change occurs at timepoint"},"start":{"id":"29","labels":["DataConcept","Value"],"properties":{"name":"percent_change","data_type":"numeric | string","description":"Percent change from/to baseline. PCHG = ((AVAL-BASE)/BASE)*100","adam_variables":["PCHG","PCHGCATy","PCHGCAyN","PBCHG","PBCHGCAy","PBCHGCyN"],"formula":"PCHG = ((AVAL - BASE) / BASE) * 100","category":"Value"}},"end":{"id":"36","labels":["DataConcept","Timing"],"properties":{"temporal_order":true,"name":"timepoint","data_type":"datetime | integer","description":"Analysis date/time/day. ADT = analysis date, ATM = analysis time, ADTM = datetime, ADY = relative day","adam_variables":["ADT","ATM","ADTM","ADY"],"category":"Timing"}}}
{"type":"relationship","id":"1152934698746380317","label":"DERIVED_FROM","properties":{"description":"Percent change from analysis value","formula":"PCHG = ((AVAL-BASE)/BASE)*100"},"start":{"id":"29","labels":["DataConcept","Value"],"properties":{"name":"percent_change","data_type":"numeric | string","description":"Percent change from/to baseline. PCHG = ((AVAL-BASE)/BASE)*100","adam_variables":["PCHG","PCHGCATy","PCHGCAyN","PBCHG","PBCHGCAy","PBCHGCyN"],"formula":"PCHG = ((AVAL - BASE) / BASE) * 100","category":"Value"}},"end":{"id":"26","labels":["DataConcept","Value"],"properties":{"name":"analysis_value","data_type":"numeric | string","pattern":"AVALCATy = analysis value category y","description":"Analysis value for parameter. AVAL = numeric, AVALC = character, AVALCATy = categorization","adam_variables":["AVAL","AVALC","AVALCATy","AVALCAyN"],"category":"Value"}}}
{"type":"relationship","id":"1155186498560065565","label":"DERIVED_FROM","properties":{"description":"Percent change using baseline"},"start":{"id":"29","labels":["DataConcept","Value"],"properties":{"name":"percent_change","data_type":"numeric | string","description":"Percent change from/to baseline. PCHG = ((AVAL-BASE)/BASE)*100","adam_variables":["PCHG","PCHGCATy","PCHGCAyN","PBCHG","PBCHGCAy","PBCHGCyN"],"formula":"PCHG = ((AVAL - BASE) / BASE) * 100","category":"Value"}},"end":{"id":"27","labels":["DataConcept","Value"],"properties":{"name":"baseline_value","data_type":"numeric | string","pattern":"BASECATy = baseline category y","description":"Subject baseline value. BASE = numeric, BASEC = character, BASECATy = categorization","adam_variables":["BASE","BASEC","BASECATy","BASECAyN"],"category":"Value"}}}
{"type":"relationship","id":"1152921504606847006","label":"BELONGS_TO_CATEGORY","start":{"id":"30","labels":["DataConcept","Value"],"properties":{"name":"ratio_value","data_type":"numeric","description":"Ratio to reference value. R2BASE = AVAL/BASE, R2AyLO = ratio to lower limit, R2AyHI = ratio to upper limit","adam_variables":["R2BASE","R2AyLO","R2AyHI"],"formula":"R2BASE = AVAL / BASE","category":"Value"}},"end":{"id":"3","labels":["Category"],"properties":{"color":"#CCE5FF","name":"Value","description":"Observation and analysis values"}}}
{"type":"relationship","id":"1152931400211496990","label":"BELONGS_TO","properties":{"description":"Ratio belongs to subject"},"start":{"id":"30","labels":["DataConcept","Value"],"properties":{"name":"ratio_value","data_type":"numeric","description":"Ratio to reference value. R2BASE = AVAL/BASE, R2AyLO = ratio to lower limit, R2AyHI = ratio to upper limit","adam_variables":["R2BASE","R2AyLO","R2AyHI"],"formula":"R2BASE = AVAL / BASE","category":"Value"}},"end":{"id":"14","labels":["DataConcept","Identity"],"properties":{"name":"subject","data_type":"string","description":"Unique subject identifier. USUBJID is unique across studies, SUBJID is unique within study.","adam_variables":["USUBJID","SUBJID"],"source":"DM.USUBJID","category":"Identity"}}}
{"type":"relationship","id":"1152932499723124766","label":"OCCURS_AT","properties":{"description":"Ratio occurs at timepoint"},"start":{"id":"30","labels":["DataConcept","Value"],"properties":{"name":"ratio_value","data_type":"numeric","description":"Ratio to reference value. R2BASE = AVAL/BASE, R2AyLO = ratio to lower limit, R2AyHI = ratio to upper limit","adam_variables":["R2BASE","R2AyLO","R2AyHI"],"formula":"R2BASE = AVAL / BASE","category":"Value"}},"end":{"id":"36","labels":["DataConcept","Timing"],"properties":{"temporal_order":true,"name":"timepoint","data_type":"datetime | integer","description":"Analysis date/time/day. ADT = analysis date, ATM = analysis time, ADTM = datetime, ADY = relative day","adam_variables":["ADT","ATM","ADTM","ADY"],"category":"Timing"}}}
{"type":"relationship","id":"1152934698746380318","label":"DERIVED_FROM","properties":{"description":"Ratio from analysis value","formula":"R2BASE = AVAL / BASE"},"start":{"id":"30","labels":["DataConcept","Value"],"properties":{"name":"ratio_value","data_type":"numeric","description":"Ratio to reference value. R2BASE = AVAL/BASE, R2AyLO = ratio to lower limit, R2AyHI = ratio to upper limit","adam_variables":["R2BASE","R2AyLO","R2AyHI"],"formula":"R2BASE = AVAL / BASE","category":"Value"}},"end":{"id":"26","labels":["DataConcept","Value"],"properties":{"name":"analysis_value","data_type":"numeric | string","pattern":"AVALCATy = analysis value category y","description":"Analysis value for parameter. AVAL = numeric, AVALC = character, AVALCATy = categorization","adam_variables":["AVAL","AVALC","AVALCATy","AVALCAyN"],"category":"Value"}}}
{"type":"relationship","id":"1155186498560065566","label":"DERIVED_FROM","properties":{"description":"Ratio using baseline"},"start":{"id":"30","labels":["DataConcept","Value"],"properties":{"name":"ratio_value","data_type":"numeric","description":"Ratio to reference value. R2BASE = AVAL/BASE, R2AyLO = ratio to lower limit, R2AyHI = ratio to upper limit","adam_variables":["R2BASE","R2AyLO","R2AyHI"],"formula":"R2BASE = AVAL / BASE","category":"Value"}},"end":{"id":"27","labels":["DataConcept","Value"],"properties":{"name":"baseline_value","data_type":"numeric | string","pattern":"BASECATy = baseline category y","description":"Subject baseline value. BASE = numeric, BASEC = character, BASECATy = categorization","adam_variables":["BASE","BASEC","BASECATy","BASECAyN"],"category":"Value"}}}
{"type":"relationship","id":"6917542221780615224","label":"DERIVED_FROM","properties":{"description":"Ratio to range limits","formula":"R2AyLO = AVAL / AyLO"},"start":{"id":"30","labels":["DataConcept","Value"],"properties":{"name":"ratio_value","data_type":"numeric","description":"Ratio to reference value. R2BASE = AVAL/BASE, R2AyLO = ratio to lower limit, R2AyHI = ratio to upper limit","adam_variables":["R2BASE","R2AyLO","R2AyHI"],"formula":"R2BASE = AVAL / BASE","category":"Value"}},"end":{"id":"56","labels":["DataConcept","Toxicity_Range"],"properties":{"name":"analysis_range","data_type":"string | numeric","pattern":"y = analysis range number","description":"Normal/analysis ranges. ANRIND=normal range indicator, ANRLO/ANRHI=normal bounds, Ay*=analysis range y","adam_variables":["ANRIND","BNRIND","ANRLO","ANRLOC","ANRHI","ANRHIC","AyLO","AyLOC","AyHI","AyHIC","AyIND","ByIND"],"category":"Toxicity_Range"}}}
{"type":"relationship","id":"1152921504606847007","label":"BELONGS_TO_CATEGORY","start":{"id":"31","labels":["DataConcept","Value"],"properties":{"name":"shift_value","data_type":"string | integer","pattern":"SHIFTy = shift group y","description":"Shift between defined pairings (e.g., Normal→High, Low→Normal)","adam_variables":["SHIFTy","SHIFTyN"],"category":"Value"}},"end":{"id":"3","labels":["Category"],"properties":{"color":"#CCE5FF","name":"Value","description":"Observation and analysis values"}}}
{"type":"relationship","id":"1152931400211496991","label":"BELONGS_TO","properties":{"description":"Shift belongs to subject"},"start":{"id":"31","labels":["DataConcept","Value"],"properties":{"name":"shift_value","data_type":"string | integer","pattern":"SHIFTy = shift group y","description":"Shift between defined pairings (e.g., Normal→High, Low→Normal)","adam_variables":["SHIFTy","SHIFTyN"],"category":"Value"}},"end":{"id":"14","labels":["DataConcept","Identity"],"properties":{"name":"subject","data_type":"string","description":"Unique subject identifier. USUBJID is unique across studies, SUBJID is unique within study.","adam_variables":["USUBJID","SUBJID"],"source":"DM.USUBJID","category":"Identity"}}}
{"type":"relationship","id":"1152934698746380319","label":"DERIVED_FROM","properties":{"description":"Shift from analysis value category"},"start":{"id":"31","labels":["DataConcept","Value"],"properties":{"name":"shift_value","data_type":"string | integer","pattern":"SHIFTy = shift group y","description":"Shift between defined pairings (e.g., Normal→High, Low→Normal)","adam_variables":["SHIFTy","SHIFTyN"],"category":"Value"}},"end":{"id":"26","labels":["DataConcept","Value"],"properties":{"name":"analysis_value","data_type":"numeric | string","pattern":"AVALCATy = analysis value category y","description":"Analysis value for parameter. AVAL = numeric, AVALC = character, AVALCATy = categorization","adam_variables":["AVAL","AVALC","AVALCATy","AVALCAyN"],"category":"Value"}}}
{"type":"relationship","id":"1155186498560065567","label":"DERIVED_FROM","properties":{"description":"Shift from baseline category"},"start":{"id":"31","labels":["DataConcept","Value"],"properties":{"name":"shift_value","data_type":"string | integer","pattern":"SHIFTy = shift group y","description":"Shift between defined pairings (e.g., Normal→High, Low→Normal)","adam_variables":["SHIFTy","SHIFTyN"],"category":"Value"}},"end":{"id":"27","labels":["DataConcept","Value"],"properties":{"name":"baseline_value","data_type":"numeric | string","pattern":"BASECATy = baseline category y","description":"Subject baseline value. BASE = numeric, BASEC = character, BASECATy = categorization","adam_variables":["BASE","BASEC","BASECATy","BASECAyN"],"category":"Value"}}}
{"type":"relationship","id":"1152921504606847008","label":"BELONGS_TO_CATEGORY","start":{"id":"32","labels":["DataConcept","Qualifier"],"properties":{"examples":["LOCF","WOCF","AVERAGE","ENDPOINT","MINIMUM","MAXIMUM"],"name":"derivation_type","data_type":"string","description":"Analysis value derivation method","adam_variables":["DTYPE"],"category":"Qualifier"}},"end":{"id":"4","labels":["Category"],"properties":{"color":"#FFF2CC","name":"Qualifier","description":"Type and method qualifiers"}}}
{"type":"relationship","id":"1152935798258008096","label":"QUALIFIES","properties":{"description":"DTYPE indicates how AVAL was derived"},"start":{"id":"32","labels":["DataConcept","Qualifier"],"properties":{"examples":["LOCF","WOCF","AVERAGE","ENDPOINT","MINIMUM","MAXIMUM"],"name":"derivation_type","data_type":"string","description":"Analysis value derivation method","adam_variables":["DTYPE"],"category":"Qualifier"}},"end":{"id":"26","labels":["DataConcept","Value"],"properties":{"name":"analysis_value","data_type":"numeric | string","pattern":"AVALCATy = analysis value category y","description":"Analysis value for parameter. AVAL = numeric, AVALC = character, AVALCATy = categorization","adam_variables":["AVAL","AVALC","AVALCATy","AVALCAyN"],"category":"Value"}}}
{"type":"relationship","id":"1152921504606847009","label":"BELONGS_TO_CATEGORY","start":{"id":"33","labels":["DataConcept","Qualifier"],"properties":{"examples":["Last value before treatment","Last non-missing in screening","Average of screening values"],"name":"baseline_type","data_type":"string","description":"Definition of baseline used when multiple baseline definitions exist","adam_variables":["BASETYPE"],"category":"Qualifier"}},"end":{"id":"4","labels":["Category"],"properties":{"color":"#FFF2CC","name":"Qualifier","description":"Type and method qualifiers"}}}
{"type":"relationship","id":"1152935798258008097","label":"QUALIFIES","properties":{"description":"BASETYPE indicates baseline definition"},"start":{"id":"33","labels":["DataConcept","Qualifier"],"properties":{"examples":["Last value before treatment","Last non-missing in screening","Average of screening values"],"name":"baseline_type","data_type":"string","description":"Definition of baseline used when multiple baseline definitions exist","adam_variables":["BASETYPE"],"category":"Qualifier"}},"end":{"id":"27","labels":["DataConcept","Value"],"properties":{"name":"baseline_value","data_type":"numeric | string","pattern":"BASECATy = baseline category y","description":"Subject baseline value. BASE = numeric, BASEC = character, BASECATy = categorization","adam_variables":["BASE","BASEC","BASECATy","BASECAyN"],"category":"Value"}}}
{"type":"relationship","id":"1152921504606847010","label":"BELONGS_TO_CATEGORY","start":{"id":"34","labels":["DataConcept","Qualifier"],"properties":{"examples":["Planned","Actual"],"name":"treatment_type","data_type":"enumeration","description":"Distinguishes planned vs actual treatment (P = Planned, A = Actual)","adam_variables":[],"category":"Qualifier"}},"end":{"id":"4","labels":["Category"],"properties":{"color":"#FFF2CC","name":"Qualifier","description":"Type and method qualifiers"}}}
{"type":"relationship","id":"1152935798258008098","label":"QUALIFIES","properties":{"description":"Distinguishes planned vs actual treatment"},"start":{"id":"34","labels":["DataConcept","Qualifier"],"properties":{"examples":["Planned","Actual"],"name":"treatment_type","data_type":"enumeration","description":"Distinguishes planned vs actual treatment (P = Planned, A = Actual)","adam_variables":[],"category":"Qualifier"}},"end":{"id":"45","labels":["DataConcept","Treatment"],"properties":{"name":"treatment_subject","data_type":"string | integer","pattern":"xx = period (01, 02), y = pooling group","description":"Subject-level treatment. TRTxxP/A = planned/actual for period xx, TRxxPGy = pooled group y, TRTSEQ* = treatment sequence","adam_variables":["ARM","ACTARM","TRTxxP","TRTxxPN","TRTxxA","TRTxxAN","TRxxPGy","TRxxPGyN","TRxxAGy","TRxxAGyN","TRTSEQP","TRTSEQPN","TRTSEQA","TRTSEQAN","TSEQPGy","TSEQPGyN","TSEQAGy","TSEQAGyN"],"category":"Treatment"}}}
{"type":"relationship","id":"1155187598071693346","label":"QUALIFIES","properties":{"description":"Distinguishes planned vs actual treatment"},"start":{"id":"34","labels":["DataConcept","Qualifier"],"properties":{"examples":["Planned","Actual"],"name":"treatment_type","data_type":"enumeration","description":"Distinguishes planned vs actual treatment (P = Planned, A = Actual)","adam_variables":[],"category":"Qualifier"}},"end":{"id":"46","labels":["DataConcept","Treatment"],"properties":{"name":"treatment_record","data_type":"string | integer","pattern":"y = pooling group number","description":"Record-level treatment. TRTP/TRTA = planned/actual treatment for record, TRTPGy/TRTAGy = pooled groups","adam_variables":["TRTP","TRTPN","TRTA","TRTAN","TRTPGy","TRTPGyN","TRTAGy","TRTAGyN"],"category":"Treatment"}}}
{"type":"relationship","id":"1157439397885378594","label":"QUALIFIES","properties":{"description":"Distinguishes planned vs actual dose"},"start":{"id":"34","labels":["DataConcept","Qualifier"],"properties":{"examples":["Planned","Actual"],"name":"treatment_type","data_type":"enumeration","description":"Distinguishes planned vs actual treatment (P = Planned, A = Actual)","adam_variables":[],"category":"Qualifier"}},"end":{"id":"47","labels":["DataConcept","Treatment"],"properties":{"name":"dose_subject","data_type":"numeric | string","pattern":"xx = period number","description":"Subject-level dose for period. DOSExxP = planned dose, DOSExxA = actual dose, DOSExxU = units","adam_variables":["DOSExxP","DOSExxA","DOSExxU"],"category":"Treatment"}}}
{"type":"relationship","id":"6917543321292242992","label":"QUALIFIES","properties":{"description":"Distinguishes planned vs actual dose"},"start":{"id":"34","labels":["DataConcept","Qualifier"],"properties":{"examples":["Planned","Actual"],"name":"treatment_type","data_type":"enumeration","description":"Distinguishes planned vs actual treatment (P = Planned, A = Actual)","adam_variables":[],"category":"Qualifier"}},"end":{"id":"48","labels":["DataConcept","Treatment"],"properties":{"name":"dose_record","data_type":"numeric | string","description":"Record-level dose. DOSEP/DOSEA = planned/actual dose, DOSCUMP/DOSCUMA = cumulative dose","adam_variables":["DOSEP","DOSEA","DOSEU","DOSCUMP","DOSCUMA"],"category":"Treatment"}}}
{"type":"relationship","id":"1152921504606847011","label":"BELONGS_TO_CATEGORY","start":{"id":"35","labels":["DataConcept","Qualifier"],"properties":{"examples":["D","M","Y","H","N","S"],"name":"imputation_flag","data_type":"string","description":"Date/time imputation flags indicating which components were imputed","adam_variables":["ADTF","ATMF","ASTDTF","ASTTMF","AENDTF","AENTMF","STARTDTF","STARTTMF"],"category":"Qualifier"}},"end":{"id":"4","labels":["Category"],"properties":{"color":"#FFF2CC","name":"Qualifier","description":"Type and method qualifiers"}}}
{"type":"relationship","id":"1152935798258008099","label":"QUALIFIES","properties":{"description":"Imputation flag indicates date/time imputation"},"start":{"id":"35","labels":["DataConcept","Qualifier"],"properties":{"examples":["D","M","Y","H","N","S"],"name":"imputation_flag","data_type":"string","description":"Date/time imputation flags indicating which components were imputed","adam_variables":["ADTF","ATMF","ASTDTF","ASTTMF","AENDTF","AENTMF","STARTDTF","STARTTMF"],"category":"Qualifier"}},"end":{"id":"36","labels":["DataConcept","Timing"],"properties":{"temporal_order":true,"name":"timepoint","data_type":"datetime | integer","description":"Analysis date/time/day. ADT = analysis date, ATM = analysis time, ADTM = datetime, ADY = relative day","adam_variables":["ADT","ATM","ADTM","ADY"],"category":"Timing"}}}
{"type":"relationship","id":"1155187598071693347","label":"QUALIFIES","properties":{"description":"Imputation flag for start/end times"},"start":{"id":"35","labels":["DataConcept","Qualifier"],"properties":{"examples":["D","M","Y","H","N","S"],"name":"imputation_flag","data_type":"string","description":"Date/time imputation flags indicating which components were imputed","adam_variables":["ADTF","ATMF","ASTDTF","ASTTMF","AENDTF","AENTMF","STARTDTF","STARTTMF"],"category":"Qualifier"}},"end":{"id":"37","labels":["DataConcept","Timing"],"properties":{"name":"start_end_timepoint","data_type":"datetime | integer","description":"Start/end dates for intervals. AST* = analysis start, AEN* = analysis end","adam_variables":["ASTDT","ASTTM","ASTDTM","ASTDY","AENDT","AENTM","AENDTM","AENDY"],"category":"Timing"}}}
{"type":"relationship","id":"1157439397885378595","label":"QUALIFIES","properties":{"description":"Imputation flag for TTE origin"},"start":{"id":"35","labels":["DataConcept","Qualifier"],"properties":{"examples":["D","M","Y","H","N","S"],"name":"imputation_flag","data_type":"string","description":"Date/time imputation flags indicating which components were imputed","adam_variables":["ADTF","ATMF","ASTDTF","ASTTMF","AENDTF","AENTMF","STARTDTF","STARTTMF"],"category":"Qualifier"}},"end":{"id":"57","labels":["DataConcept","Time_to_Event"],"properties":{"name":"tte_origin","data_type":"datetime","description":"Time-to-event origin point (when subject entered risk)","adam_variables":["STARTDT","STARTDTM"],"category":"Time_to_Event"}}}
{"type":"relationship","id":"1152921504606847012","label":"BELONGS_TO_CATEGORY","start":{"id":"36","labels":["DataConcept","Timing"],"properties":{"temporal_order":true,"name":"timepoint","data_type":"datetime | integer","description":"Analysis date/time/day. ADT = analysis date, ATM = analysis time, ADTM = datetime, ADY = relative day","adam_variables":["ADT","ATM","ADTM","ADY"],"category":"Timing"}},"end":{"id":"5","labels":["Category"],"properties":{"color":"#E1D5E7","name":"Timing","description":"Temporal concepts and hierarchy"}}}
{"type":"relationship","id":"6917530127152709671","label":"WITHIN","properties":{"description":"Timepoint is within a period"},"start":{"id":"36","labels":["DataConcept","Timing"],"properties":{"temporal_order":true,"name":"timepoint","data_type":"datetime | integer","description":"Analysis date/time/day. ADT = analysis date, ATM = analysis time, ADTM = datetime, ADY = relative day","adam_variables":["ADT","ATM","ADTM","ADY"],"category":"Timing"}},"end":{"id":"39","labels":["DataConcept","Timing"],"properties":{"name":"period","data_type":"integer | string","description":"Analysis period and subperiod. APERIOD = period number, APERIODC = description, ASPER = subperiod","adam_variables":["APERIOD","APERIODC","ASPER","ASPERC"],"category":"Timing"}}}
{"type":"relationship","id":"1152921504606847013","label":"BELONGS_TO_CATEGORY","start":{"id":"37","labels":["DataConcept","Timing"],"properties":{"name":"start_end_timepoint","data_type":"datetime | integer","description":"Start/end dates for intervals. AST* = analysis start, AEN* = analysis end","adam_variables":["ASTDT","ASTTM","ASTDTM","ASTDY","AENDT","AENTM","AENDTM","AENDY"],"category":"Timing"}},"end":{"id":"5","labels":["Category"],"properties":{"color":"#E1D5E7","name":"Timing","description":"Temporal concepts and hierarchy"}}}
{"type":"relationship","id":"1152941295816146981","label":"BOUNDS","properties":{"description":"Start/end times bound analysis value interval"},"start":{"id":"37","labels":["DataConcept","Timing"],"properties":{"name":"start_end_timepoint","data_type":"datetime | integer","description":"Start/end dates for intervals. AST* = analysis start, AEN* = analysis end","adam_variables":["ASTDT","ASTTM","ASTDTM","ASTDY","AENDT","AENTM","AENDTM","AENDY"],"category":"Timing"}},"end":{"id":"26","labels":["DataConcept","Value"],"properties":{"name":"analysis_value","data_type":"numeric | string","pattern":"AVALCATy = analysis value category y","description":"Analysis value for parameter. AVAL = numeric, AVALC = character, AVALCATy = categorization","adam_variables":["AVAL","AVALC","AVALCATy","AVALCAyN"],"category":"Value"}}}
{"type":"relationship","id":"1152921504606847014","label":"BELONGS_TO_CATEGORY","start":{"id":"38","labels":["DataConcept","Timing"],"properties":{"temporal_order":true,"name":"visit","data_type":"string | integer","description":"Analysis visit and timepoint. AVISIT = visit description, ATPT = timepoint description, ATPTREF = reference","adam_variables":["AVISIT","AVISITN","ATPT","ATPTN","ATPTREF"],"category":"Timing"}},"end":{"id":"5","labels":["Category"],"properties":{"color":"#E1D5E7","name":"Timing","description":"Temporal concepts and hierarchy"}}}
{"type":"relationship","id":"1152922604118474790","label":"WITHIN","properties":{"description":"Visit is within a period"},"start":{"id":"38","labels":["DataConcept","Timing"],"properties":{"temporal_order":true,"name":"visit","data_type":"string | integer","description":"Analysis visit and timepoint. AVISIT = visit description, ATPT = timepoint description, ATPTREF = reference","adam_variables":["AVISIT","AVISITN","ATPT","ATPTN","ATPTREF"],"category":"Timing"}},"end":{"id":"39","labels":["DataConcept","Timing"],"properties":{"name":"period","data_type":"integer | string","description":"Analysis period and subperiod. APERIOD = period number, APERIODC = description, ASPER = subperiod","adam_variables":["APERIOD","APERIODC","ASPER","ASPERC"],"category":"Timing"}}}
{"type":"relationship","id":"1152936897769635878","label":"CORRESPONDS_TO","properties":{"description":"Visit corresponds to actual timepoint"},"start":{"id":"38","labels":["DataConcept","Timing"],"properties":{"temporal_order":true,"name":"visit","data_type":"string | integer","description":"Analysis visit and timepoint. AVISIT = visit description, ATPT = timepoint description, ATPTREF = reference","adam_variables":["AVISIT","AVISITN","ATPT","ATPTN","ATPTREF"],"category":"Timing"}},"end":{"id":"36","labels":["DataConcept","Timing"],"properties":{"temporal_order":true,"name":"timepoint","data_type":"datetime | integer","description":"Analysis date/time/day. ADT = analysis date, ATM = analysis time, ADTM = datetime, ADY = relative day","adam_variables":["ADT","ATM","ADTM","ADY"],"category":"Timing"}}}
{"type":"relationship","id":"1152921504606847015","label":"BELONGS_TO_CATEGORY","start":{"id":"39","labels":["DataConcept","Timing"],"properties":{"name":"period","data_type":"integer | string","description":"Analysis period and subperiod. APERIOD = period number, APERIODC = description, ASPER = subperiod","adam_variables":["APERIOD","APERIODC","ASPER","ASPERC"],"category":"Timing"}},"end":{"id":"5","labels":["Category"],"properties":{"color":"#E1D5E7","name":"Timing","description":"Temporal concepts and hierarchy"}}}
{"type":"relationship","id":"6917530127152709672","label":"WITHIN","properties":{"description":"Period is within a phase"},"start":{"id":"39","labels":["DataConcept","Timing"],"properties":{"name":"period","data_type":"integer | string","description":"Analysis period and subperiod. APERIOD = period number, APERIODC = description, ASPER = subperiod","adam_variables":["APERIOD","APERIODC","ASPER","ASPERC"],"category":"Timing"}},"end":{"id":"40","labels":["DataConcept","Timing"],"properties":{"examples":["Screening","Run-in","Treatment","Follow-up"],"name":"phase","data_type":"string | integer","description":"Study phase categorization","adam_variables":["APHASE","APHASEN"],"category":"Timing"}}}
{"type":"relationship","id":"1155189797094948903","label":"CONTAINS","properties":{"description":"Period contains timepoints"},"start":{"id":"39","labels":["DataConcept","Timing"],"properties":{"name":"period","data_type":"integer | string","description":"Analysis period and subperiod. APERIOD = period number, APERIODC = description, ASPER = subperiod","adam_variables":["APERIOD","APERIODC","ASPER","ASPERC"],"category":"Timing"}},"end":{"id":"36","labels":["DataConcept","Timing"],"properties":{"temporal_order":true,"name":"timepoint","data_type":"datetime | integer","description":"Analysis date/time/day. ADT = analysis date, ATM = analysis time, ADTM = datetime, ADY = relative day","adam_variables":["ADT","ATM","ADTM","ADY"],"category":"Timing"}}}
{"type":"relationship","id":"1157441596908634151","label":"CONTAINS","properties":{"description":"Period contains visits"},"start":{"id":"39","labels":["DataConcept","Timing"],"properties":{"name":"period","data_type":"integer | string","description":"Analysis period and subperiod. APERIOD = period number, APERIODC = description, ASPER = subperiod","adam_variables":["APERIOD","APERIODC","ASPER","ASPERC"],"category":"Timing"}},"end":{"id":"38","labels":["DataConcept","Timing"],"properties":{"temporal_order":true,"name":"visit","data_type":"string | integer","description":"Analysis visit and timepoint. AVISIT = visit description, ATPT = timepoint description, ATPTREF = reference","adam_variables":["AVISIT","AVISITN","ATPT","ATPTN","ATPTREF"],"category":"Timing"}}}
{"type":"relationship","id":"1152921504606847016","label":"BELONGS_TO_CATEGORY","start":{"id":"40","labels":["DataConcept","Timing"],"properties":{"examples":["Screening","Run-in","Treatment","Follow-up"],"name":"phase","data_type":"string | integer","description":"Study phase categorization","adam_variables":["APHASE","APHASEN"],"category":"Timing"}},"end":{"id":"5","labels":["Category"],"properties":{"color":"#E1D5E7","name":"Timing","description":"Temporal concepts and hierarchy"}}}
{"type":"relationship","id":"1152937997281263656","label":"CONTAINS","properties":{"description":"Phase contains periods"},"start":{"id":"40","labels":["DataConcept","Timing"],"properties":{"examples":["Screening","Run-in","Treatment","Follow-up"],"name":"phase","data_type":"string | integer","description":"Study phase categorization","adam_variables":["APHASE","APHASEN"],"category":"Timing"}},"end":{"id":"39","labels":["DataConcept","Timing"],"properties":{"name":"period","data_type":"integer | string","description":"Analysis period and subperiod. APERIOD = period number, APERIODC = description, ASPER = subperiod","adam_variables":["APERIOD","APERIODC","ASPER","ASPERC"],"category":"Timing"}}}
{"type":"relationship","id":"1152921504606847017","label":"BELONGS_TO_CATEGORY","start":{"id":"41","labels":["DataConcept","Timing"],"properties":{"name":"analysis_window","data_type":"string | numeric","description":"Visit windowing parameters. AWTARGET = target day, AWLO/AWHI = window bounds, AWU = units","adam_variables":["AWRANGE","AWTARGET","AWTDIFF","AWLO","AWHI","AWU"],"category":"Timing"}},"end":{"id":"5","labels":["Category"],"properties":{"color":"#E1D5E7","name":"Timing","description":"Temporal concepts and hierarchy"}}}
{"type":"relationship","id":"1152939096792891433","label":"DEFINES","properties":{"description":"Window defines visit assignment"},"start":{"id":"41","labels":["DataConcept","Timing"],"properties":{"name":"analysis_window","data_type":"string | numeric","description":"Visit windowing parameters. AWTARGET = target day, AWLO/AWHI = window bounds, AWU = units","adam_variables":["AWRANGE","AWTARGET","AWTDIFF","AWLO","AWHI","AWU"],"category":"Timing"}},"end":{"id":"38","labels":["DataConcept","Timing"],"properties":{"temporal_order":true,"name":"visit","data_type":"string | integer","description":"Analysis visit and timepoint. AVISIT = visit description, ATPT = timepoint description, ATPTREF = reference","adam_variables":["AVISIT","AVISITN","ATPT","ATPTN","ATPTREF"],"category":"Timing"}}}
{"type":"relationship","id":"1152940196304519209","label":"ASSIGNS","properties":{"description":"Window assigns timepoint to visit"},"start":{"id":"41","labels":["DataConcept","Timing"],"properties":{"name":"analysis_window","data_type":"string | numeric","description":"Visit windowing parameters. AWTARGET = target day, AWLO/AWHI = window bounds, AWU = units","adam_variables":["AWRANGE","AWTARGET","AWTDIFF","AWLO","AWHI","AWU"],"category":"Timing"}},"end":{"id":"36","labels":["DataConcept","Timing"],"properties":{"temporal_order":true,"name":"timepoint","data_type":"datetime | integer","description":"Analysis date/time/day. ADT = analysis date, ATM = analysis time, ADTM = datetime, ADY = relative day","adam_variables":["ADT","ATM","ADTM","ADY"],"category":"Timing"}}}
{"type":"relationship","id":"1152921504606847018","label":"BELONGS_TO_CATEGORY","start":{"id":"42","labels":["DataConcept","Timing"],"properties":{"name":"relative_time","data_type":"numeric | string","description":"Relative time from reference point. ARELTM = relative time value, ARELTMU = units","adam_variables":["ARELTM","ARELTMU"],"category":"Timing"}},"end":{"id":"5","labels":["Category"],"properties":{"color":"#E1D5E7","name":"Timing","description":"Temporal concepts and hierarchy"}}}
{"type":"relationship","id":"1152921504606847019","label":"BELONGS_TO_CATEGORY","start":{"id":"43","labels":["DataConcept","Timing"],"properties":{"name":"period_timing_subject","data_type":"datetime","pattern":"xx = period number (01, 02), w = phase number","description":"Subject-level period/phase start/end timing (ADSL). APxx* = period xx timing, PHw* = phase w timing","adam_variables":["APxxSDT","APxxSTM","APxxSDTM","APxxEDT","APxxETM","APxxEDTM","PHwSDT","PHwSTM","PHwSDTM","PHwEDT","PHwETM","PHwEDTM"],"category":"Timing"}},"end":{"id":"5","labels":["Category"],"properties":{"color":"#E1D5E7","name":"Timing","description":"Temporal concepts and hierarchy"}}}
{"type":"relationship","id":"1152921504606847020","label":"BELONGS_TO_CATEGORY","start":{"id":"44","labels":["DataConcept","Timing"],"properties":{"name":"period_timing_record","data_type":"datetime","description":"Record-level period/subperiod/phase timing (BDS). APER* = period, ASPR* = subperiod, PH* = phase","adam_variables":["APERSDT","APERSTM","APERSDTM","APEREDT","APERETM","APEREDTM","ASPRSDT","ASPRSTM","ASPRSDTM","ASPREDT","ASPRETM","ASPREDTM","PHSDT","PHSTM","PHSDTM","PHEDT","PHETM","PHEDTM"],"category":"Timing"}},"end":{"id":"5","labels":["Category"],"properties":{"color":"#E1D5E7","name":"Timing","description":"Temporal concepts and hierarchy"}}}
{"type":"relationship","id":"1152921504606847021","label":"BELONGS_TO_CATEGORY","start":{"id":"45","labels":["DataConcept","Treatment"],"properties":{"name":"treatment_subject","data_type":"string | integer","pattern":"xx = period (01, 02), y = pooling group","description":"Subject-level treatment. TRTxxP/A = planned/actual for period xx, TRxxPGy = pooled group y, TRTSEQ* = treatment sequence","adam_variables":["ARM","ACTARM","TRTxxP","TRTxxPN","TRTxxA","TRTxxAN","TRxxPGy","TRxxPGyN","TRxxAGy","TRxxAGyN","TRTSEQP","TRTSEQPN","TRTSEQA","TRTSEQAN","TSEQPGy","TSEQPGyN","TSEQAGy","TSEQAGyN"],"category":"Treatment"}},"end":{"id":"6","labels":["Category"],"properties":{"color":"#F8CECC","name":"Treatment","description":"Treatment assignment and dosing"}}}
{"type":"relationship","id":"1152942395327774765","label":"ASSIGNED_TO","properties":{"description":"Treatment assigned to subject"},"start":{"id":"45","labels":["DataConcept","Treatment"],"properties":{"name":"treatment_subject","data_type":"string | integer","pattern":"xx = period (01, 02), y = pooling group","description":"Subject-level treatment. TRTxxP/A = planned/actual for period xx, TRxxPGy = pooled group y, TRTSEQ* = treatment sequence","adam_variables":["ARM","ACTARM","TRTxxP","TRTxxPN","TRTxxA","TRTxxAN","TRxxPGy","TRxxPGyN","TRxxAGy","TRxxAGyN","TRTSEQP","TRTSEQPN","TRTSEQA","TRTSEQAN","TSEQPGy","TSEQPGyN","TSEQAGy","TSEQAGyN"],"category":"Treatment"}},"end":{"id":"14","labels":["DataConcept","Identity"],"properties":{"name":"subject","data_type":"string","description":"Unique subject identifier. USUBJID is unique across studies, SUBJID is unique within study.","adam_variables":["USUBJID","SUBJID"],"source":"DM.USUBJID","category":"Identity"}}}
{"type":"relationship","id":"1152943494839402541","label":"DURING","properties":{"description":"Treatment during period"},"start":{"id":"45","labels":["DataConcept","Treatment"],"properties":{"name":"treatment_subject","data_type":"string | integer","pattern":"xx = period (01, 02), y = pooling group","description":"Subject-level treatment. TRTxxP/A = planned/actual for period xx, TRxxPGy = pooled group y, TRTSEQ* = treatment sequence","adam_variables":["ARM","ACTARM","TRTxxP","TRTxxPN","TRTxxA","TRTxxAN","TRxxPGy","TRxxPGyN","TRxxAGy","TRxxAGyN","TRTSEQP","TRTSEQPN","TRTSEQA","TRTSEQAN","TSEQPGy","TSEQPGyN","TSEQAGy","TSEQAGyN"],"category":"Treatment"}},"end":{"id":"39","labels":["DataConcept","Timing"],"properties":{"name":"period","data_type":"integer | string","description":"Analysis period and subperiod. APERIOD = period number, APERIODC = description, ASPER = subperiod","adam_variables":["APERIOD","APERIODC","ASPER","ASPERC"],"category":"Timing"}}}
{"type":"relationship","id":"1152921504606847022","label":"BELONGS_TO_CATEGORY","start":{"id":"46","labels":["DataConcept","Treatment"],"properties":{"name":"treatment_record","data_type":"string | integer","pattern":"y = pooling group number","description":"Record-level treatment. TRTP/TRTA = planned/actual treatment for record, TRTPGy/TRTAGy = pooled groups","adam_variables":["TRTP","TRTPN","TRTA","TRTAN","TRTPGy","TRTPGyN","TRTAGy","TRTAGyN"],"category":"Treatment"}},"end":{"id":"6","labels":["Category"],"properties":{"color":"#F8CECC","name":"Treatment","description":"Treatment assignment and dosing"}}}
{"type":"relationship","id":"1152944594351030318","label":"APPLIES_TO","properties":{"description":"Record-level treatment applies to analysis value"},"start":{"id":"46","labels":["DataConcept","Treatment"],"properties":{"name":"treatment_record","data_type":"string | integer","pattern":"y = pooling group number","description":"Record-level treatment. TRTP/TRTA = planned/actual treatment for record, TRTPGy/TRTAGy = pooled groups","adam_variables":["TRTP","TRTPN","TRTA","TRTAN","TRTPGy","TRTPGyN","TRTAGy","TRTAGyN"],"category":"Treatment"}},"end":{"id":"26","labels":["DataConcept","Value"],"properties":{"name":"analysis_value","data_type":"numeric | string","pattern":"AVALCATy = analysis value category y","description":"Analysis value for parameter. AVAL = numeric, AVALC = character, AVALCATy = categorization","adam_variables":["AVAL","AVALC","AVALCATy","AVALCAyN"],"category":"Value"}}}
{"type":"relationship","id":"1152921504606847023","label":"BELONGS_TO_CATEGORY","start":{"id":"47","labels":["DataConcept","Treatment"],"properties":{"name":"dose_subject","data_type":"numeric | string","pattern":"xx = period number","description":"Subject-level dose for period. DOSExxP = planned dose, DOSExxA = actual dose, DOSExxU = units","adam_variables":["DOSExxP","DOSExxA","DOSExxU"],"category":"Treatment"}},"end":{"id":"6","labels":["Category"],"properties":{"color":"#F8CECC","name":"Treatment","description":"Treatment assignment and dosing"}}}
{"type":"relationship","id":"1152945693862658095","label":"ASSOCIATED_WITH","properties":{"description":"Dose associated with treatment"},"start":{"id":"47","labels":["DataConcept","Treatment"],"properties":{"name":"dose_subject","data_type":"numeric | string","pattern":"xx = period number","description":"Subject-level dose for period. DOSExxP = planned dose, DOSExxA = actual dose, DOSExxU = units","adam_variables":["DOSExxP","DOSExxA","DOSExxU"],"category":"Treatment"}},"end":{"id":"45","labels":["DataConcept","Treatment"],"properties":{"name":"treatment_subject","data_type":"string | integer","pattern":"xx = period (01, 02), y = pooling group","description":"Subject-level treatment. TRTxxP/A = planned/actual for period xx, TRxxPGy = pooled group y, TRTSEQ* = treatment sequence","adam_variables":["ARM","ACTARM","TRTxxP","TRTxxPN","TRTxxA","TRTxxAN","TRxxPGy","TRxxPGyN","TRxxAGy","TRxxAGyN","TRTSEQP","TRTSEQPN","TRTSEQA","TRTSEQAN","TSEQPGy","TSEQPGyN","TSEQAGy","TSEQAGyN"],"category":"Treatment"}}}
{"type":"relationship","id":"1152921504606847024","label":"BELONGS_TO_CATEGORY","start":{"id":"48","labels":["DataConcept","Treatment"],"properties":{"name":"dose_record","data_type":"numeric | string","description":"Record-level dose. DOSEP/DOSEA = planned/actual dose, DOSCUMP/DOSCUMA = cumulative dose","adam_variables":["DOSEP","DOSEA","DOSEU","DOSCUMP","DOSCUMA"],"category":"Treatment"}},"end":{"id":"6","labels":["Category"],"properties":{"color":"#F8CECC","name":"Treatment","description":"Treatment assignment and dosing"}}}
{"type":"relationship","id":"1152945693862658096","label":"ASSOCIATED_WITH","properties":{"description":"Record dose associated with record treatment"},"start":{"id":"48","labels":["DataConcept","Treatment"],"properties":{"name":"dose_record","data_type":"numeric | string","description":"Record-level dose. DOSEP/DOSEA = planned/actual dose, DOSCUMP/DOSCUMA = cumulative dose","adam_variables":["DOSEP","DOSEA","DOSEU","DOSCUMP","DOSCUMA"],"category":"Treatment"}},"end":{"id":"46","labels":["DataConcept","Treatment"],"properties":{"name":"treatment_record","data_type":"string | integer","pattern":"y = pooling group number","description":"Record-level treatment. TRTP/TRTA = planned/actual treatment for record, TRTPGy/TRTAGy = pooled groups","adam_variables":["TRTP","TRTPN","TRTA","TRTAN","TRTPGy","TRTPGyN","TRTAGy","TRTAGyN"],"category":"Treatment"}}}
{"type":"relationship","id":"1152921504606847025","label":"BELONGS_TO_CATEGORY","start":{"id":"49","labels":["DataConcept","Treatment"],"properties":{"name":"treatment_timing","data_type":"datetime","pattern":"xx = period number","description":"Treatment start/end timing. TRTS* = overall start, TRTE* = overall end, TRxx* = period xx timing","adam_variables":["TRTSDT","TRTSTM","TRTSDTM","TRTEDT","TRTETM","TRTEDTM","TRxxSDT","TRxxSTM","TRxxSDTM","TRxxEDT","TRxxETM","TRxxEDTM"],"category":"Treatment"}},"end":{"id":"6","labels":["Category"],"properties":{"color":"#F8CECC","name":"Treatment","description":"Treatment assignment and dosing"}}}
{"type":"relationship","id":"1152941295816146993","label":"BOUNDS","properties":{"description":"Treatment timing bounds treatment period"},"start":{"id":"49","labels":["DataConcept","Treatment"],"properties":{"name":"treatment_timing","data_type":"datetime","pattern":"xx = period number","description":"Treatment start/end timing. TRTS* = overall start, TRTE* = overall end, TRxx* = period xx timing","adam_variables":["TRTSDT","TRTSTM","TRTSDTM","TRTEDT","TRTETM","TRTEDTM","TRxxSDT","TRxxSTM","TRxxSDTM","TRxxEDT","TRxxETM","TRxxEDTM"],"category":"Treatment"}},"end":{"id":"45","labels":["DataConcept","Treatment"],"properties":{"name":"treatment_subject","data_type":"string | integer","pattern":"xx = period (01, 02), y = pooling group","description":"Subject-level treatment. TRTxxP/A = planned/actual for period xx, TRxxPGy = pooled group y, TRTSEQ* = treatment sequence","adam_variables":["ARM","ACTARM","TRTxxP","TRTxxPN","TRTxxA","TRTxxAN","TRxxPGy","TRxxPGyN","TRxxAGy","TRxxAGyN","TRTSEQP","TRTSEQPN","TRTSEQA","TRTSEQAN","TSEQPGy","TSEQPGyN","TSEQAGy","TSEQAGyN"],"category":"Treatment"}}}
{"type":"relationship","id":"1152921504606847026","label":"BELONGS_TO_CATEGORY","start":{"id":"50","labels":["DataConcept","Treatment"],"properties":{"name":"treatment_duration","data_type":"numeric","pattern":"xx = period number","description":"Treatment duration. *DURD = days, *DURM = months, *DURY = years","adam_variables":["TRTDURD","TRTDURM","TRTDURY","TRxxDURD","TRxxDURM","TRxxDURY"],"category":"Treatment"}},"end":{"id":"6","labels":["Category"],"properties":{"color":"#F8CECC","name":"Treatment","description":"Treatment assignment and dosing"}}}
{"type":"relationship","id":"1152946793374285874","label":"MEASURES","properties":{"description":"Duration measures treatment length"},"start":{"id":"50","labels":["DataConcept","Treatment"],"properties":{"name":"treatment_duration","data_type":"numeric","pattern":"xx = period number","description":"Treatment duration. *DURD = days, *DURM = months, *DURY = years","adam_variables":["TRTDURD","TRTDURM","TRTDURY","TRxxDURD","TRxxDURM","TRxxDURY"],"category":"Treatment"}},"end":{"id":"45","labels":["DataConcept","Treatment"],"properties":{"name":"treatment_subject","data_type":"string | integer","pattern":"xx = period (01, 02), y = pooling group","description":"Subject-level treatment. TRTxxP/A = planned/actual for period xx, TRxxPGy = pooled group y, TRTSEQ* = treatment sequence","adam_variables":["ARM","ACTARM","TRTxxP","TRTxxPN","TRTxxA","TRTxxAN","TRxxPGy","TRxxPGyN","TRxxAGy","TRxxAGyN","TRTSEQP","TRTSEQPN","TRTSEQA","TRTSEQAN","TSEQPGy","TSEQPGyN","TSEQAGy","TSEQAGyN"],"category":"Treatment"}}}
{"type":"relationship","id":"1152921504606847027","label":"BELONGS_TO_CATEGORY","start":{"id":"51","labels":["DataConcept","Treatment"],"properties":{"name":"treatment_compliance","data_type":"numeric | string","description":"Treatment compliance. TRCMP=compliance value, TRCMPGy=compliance grouping y","adam_variables":["TRCMP","TRCMPGy","TRCMPGyN"],"category":"Treatment"}},"end":{"id":"6","labels":["Category"],"properties":{"color":"#F8CECC","name":"Treatment","description":"Treatment assignment and dosing"}}}
{"type":"relationship","id":"1152946793374285875","label":"MEASURES","properties":{"description":"Compliance measures treatment adherence"},"start":{"id":"51","labels":["DataConcept","Treatment"],"properties":{"name":"treatment_compliance","data_type":"numeric | string","description":"Treatment compliance. TRCMP=compliance value, TRCMPGy=compliance grouping y","adam_variables":["TRCMP","TRCMPGy","TRCMPGyN"],"category":"Treatment"}},"end":{"id":"45","labels":["DataConcept","Treatment"],"properties":{"name":"treatment_subject","data_type":"string | integer","pattern":"xx = period (01, 02), y = pooling group","description":"Subject-level treatment. TRTxxP/A = planned/actual for period xx, TRxxPGy = pooled group y, TRTSEQ* = treatment sequence","adam_variables":["ARM","ACTARM","TRTxxP","TRTxxPN","TRTxxA","TRTxxAN","TRxxPGy","TRxxPGyN","TRxxAGy","TRxxAGyN","TRTSEQP","TRTSEQPN","TRTSEQA","TRTSEQAN","TSEQPGy","TSEQPGyN","TSEQAGy","TSEQAGyN"],"category":"Treatment"}}}
{"type":"relationship","id":"1152921504606847028","label":"BELONGS_TO_CATEGORY","start":{"id":"52","labels":["DataConcept","Flag"],"properties":{"name":"population_flag","data_type":"string (Y/N)","description":"Subject-level population flags. SAFFL=Safety, FASFL=Full Analysis Set, ITTFL=Intent-to-Treat, PPROTFL=Per-Protocol, COMPLFL=Completers, RANDFL=Randomized, ENRLFL=Enrolled","adam_variables":["SAFFL","FASFL","ITTFL","PPROTFL","COMPLFL","RANDFL","ENRLFL"],"category":"Flag"}},"end":{"id":"7","labels":["Category"],"properties":{"color":"#F5F5F5","name":"Flag","description":"Population and record flags"}}}
{"type":"relationship","id":"1152947892885913652","label":"INCLUDES","properties":{"sql_inference":"WHERE SAFFL = \"Y\"","description":"Population flag indicates subject inclusion"},"start":{"id":"52","labels":["DataConcept","Flag"],"properties":{"name":"population_flag","data_type":"string (Y/N)","description":"Subject-level population flags. SAFFL=Safety, FASFL=Full Analysis Set, ITTFL=Intent-to-Treat, PPROTFL=Per-Protocol, COMPLFL=Completers, RANDFL=Randomized, ENRLFL=Enrolled","adam_variables":["SAFFL","FASFL","ITTFL","PPROTFL","COMPLFL","RANDFL","ENRLFL"],"category":"Flag"}},"end":{"id":"14","labels":["DataConcept","Identity"],"properties":{"name":"subject","data_type":"string","description":"Unique subject identifier. USUBJID is unique across studies, SUBJID is unique within study.","adam_variables":["USUBJID","SUBJID"],"source":"DM.USUBJID","category":"Identity"}}}
{"type":"relationship","id":"1152921504606847029","label":"BELONGS_TO_CATEGORY","start":{"id":"53","labels":["DataConcept","Flag"],"properties":{"name":"record_population_flag","data_type":"string (Y/N)","description":"Record-level population flags. *RFL = record in population by period, *PFL = record in population by parameter","adam_variables":["ITTRFL","SAFRFL","FASRFL","PPROTRFL","COMPLRFL","ITTPFL","SAFPFL","FASPFL","PPROTPFL","COMPLPFL"],"category":"Flag"}},"end":{"id":"7","labels":["Category"],"properties":{"color":"#F5F5F5","name":"Flag","description":"Population and record flags"}}}
{"type":"relationship","id":"1152948992397541429","label":"MARKS","properties":{"sql_inference":"WHERE flag = \"Y\"","description":"Record population flag marks records"},"start":{"id":"53","labels":["DataConcept","Flag"],"properties":{"name":"record_population_flag","data_type":"string (Y/N)","description":"Record-level population flags. *RFL = record in population by period, *PFL = record in population by parameter","adam_variables":["ITTRFL","SAFRFL","FASRFL","PPROTRFL","COMPLRFL","ITTPFL","SAFPFL","FASPFL","PPROTPFL","COMPLPFL"],"category":"Flag"}},"end":{"id":"26","labels":["DataConcept","Value"],"properties":{"name":"analysis_value","data_type":"numeric | string","pattern":"AVALCATy = analysis value category y","description":"Analysis value for parameter. AVAL = numeric, AVALC = character, AVALCATy = categorization","adam_variables":["AVAL","AVALC","AVALCATy","AVALCAyN"],"category":"Value"}}}
{"type":"relationship","id":"1152921504606847030","label":"BELONGS_TO_CATEGORY","start":{"id":"54","labels":["DataConcept","Flag"],"properties":{"name":"record_flag","data_type":"string (Y/N) | integer","pattern":"zz = flag number (01, 02)","description":"Record-level analysis flags. ABLFL=baseline record, ANLzzFL=analysis flag zz, ONTRTFL=on treatment, LVOTFL=last value on treatment","adam_variables":["ABLFL","ABLFN","ANLzzFL","ANLzzFN","ONTRTFL","ONTRTFN","LVOTFL","LVOTFN"],"category":"Flag"}},"end":{"id":"7","labels":["Category"],"properties":{"color":"#F5F5F5","name":"Flag","description":"Population and record flags"}}}
{"type":"relationship","id":"1152948992397541430","label":"MARKS","properties":{"sql_inference":"WHERE ABLFL = \"Y\"","description":"Record flag marks analysis records"},"start":{"id":"54","labels":["DataConcept","Flag"],"properties":{"name":"record_flag","data_type":"string (Y/N) | integer","pattern":"zz = flag number (01, 02)","description":"Record-level analysis flags. ABLFL=baseline record, ANLzzFL=analysis flag zz, ONTRTFL=on treatment, LVOTFL=last value on treatment","adam_variables":["ABLFL","ABLFN","ANLzzFL","ANLzzFN","ONTRTFL","ONTRTFN","LVOTFL","LVOTFN"],"category":"Flag"}},"end":{"id":"26","labels":["DataConcept","Value"],"properties":{"name":"analysis_value","data_type":"numeric | string","pattern":"AVALCATy = analysis value category y","description":"Analysis value for parameter. AVAL = numeric, AVALC = character, AVALCATy = categorization","adam_variables":["AVAL","AVALC","AVALCATy","AVALCAyN"],"category":"Value"}}}
{"type":"relationship","id":"1152921504606847031","label":"BELONGS_TO_CATEGORY","start":{"id":"55","labels":["DataConcept","Toxicity_Range"],"properties":{"name":"toxicity_grade","data_type":"string | integer","description":"Toxicity grading. ATOXGR=analysis grade, BTOXGR=baseline grade, *L/*H=low/high direction","adam_variables":["ATOXGR","ATOXGRN","BTOXGR","BTOXGRN","ATOXGRL","ATOXGRLN","ATOXGRH","ATOXGRHN","BTOXGRL","BTOXGRLN","BTOXGRH","BTOXGRHN","ATOXDSCL","ATOXDSCH"],"category":"Toxicity_Range"}},"end":{"id":"8","labels":["Category"],"properties":{"color":"#FFCCCC","name":"Toxicity_Range","description":"Toxicity grading and reference ranges"}}}
{"type":"relationship","id":"1152933599234752567","label":"SCOPED_BY","properties":{"description":"Toxicity grading is parameter-specific"},"start":{"id":"55","labels":["DataConcept","Toxicity_Range"],"properties":{"name":"toxicity_grade","data_type":"string | integer","description":"Toxicity grading. ATOXGR=analysis grade, BTOXGR=baseline grade, *L/*H=low/high direction","adam_variables":["ATOXGR","ATOXGRN","BTOXGR","BTOXGRN","ATOXGRL","ATOXGRLN","ATOXGRH","ATOXGRHN","BTOXGRL","BTOXGRLN","BTOXGRH","BTOXGRHN","ATOXDSCL","ATOXDSCH"],"category":"Toxicity_Range"}},"end":{"id":"23","labels":["DataConcept","Parameter"],"properties":{"name":"parameter","data_type":"string | integer","pattern":"PARCATy = parameter category y for grouping","description":"Analysis parameter and categorizations. PARAMCD limited to 8 characters.","adam_variables":["PARAM","PARAMCD","PARAMN","PARCATy","PARCATyN"],"category":"Parameter"}}}
{"type":"relationship","id":"1152950091909169207","label":"GRADES","properties":{"description":"Toxicity grade assigned to analysis value"},"start":{"id":"55","labels":["DataConcept","Toxicity_Range"],"properties":{"name":"toxicity_grade","data_type":"string | integer","description":"Toxicity grading. ATOXGR=analysis grade, BTOXGR=baseline grade, *L/*H=low/high direction","adam_variables":["ATOXGR","ATOXGRN","BTOXGR","BTOXGRN","ATOXGRL","ATOXGRLN","ATOXGRH","ATOXGRHN","BTOXGRL","BTOXGRLN","BTOXGRH","BTOXGRHN","ATOXDSCL","ATOXDSCH"],"category":"Toxicity_Range"}},"end":{"id":"26","labels":["DataConcept","Value"],"properties":{"name":"analysis_value","data_type":"numeric | string","pattern":"AVALCATy = analysis value category y","description":"Analysis value for parameter. AVAL = numeric, AVALC = character, AVALCATy = categorization","adam_variables":["AVAL","AVALC","AVALCATy","AVALCAyN"],"category":"Value"}}}
{"type":"relationship","id":"1152921504606847032","label":"BELONGS_TO_CATEGORY","start":{"id":"56","labels":["DataConcept","Toxicity_Range"],"properties":{"name":"analysis_range","data_type":"string | numeric","pattern":"y = analysis range number","description":"Normal/analysis ranges. ANRIND=normal range indicator, ANRLO/ANRHI=normal bounds, Ay*=analysis range y","adam_variables":["ANRIND","BNRIND","ANRLO","ANRLOC","ANRHI","ANRHIC","AyLO","AyLOC","AyHI","AyHIC","AyIND","ByIND"],"category":"Toxicity_Range"}},"end":{"id":"8","labels":["Category"],"properties":{"color":"#FFCCCC","name":"Toxicity_Range","description":"Toxicity grading and reference ranges"}}}
{"type":"relationship","id":"1152930300699869240","label":"EVALUATES","properties":{"description":"Range evaluates analysis value"},"start":{"id":"56","labels":["DataConcept","Toxicity_Range"],"properties":{"name":"analysis_range","data_type":"string | numeric","pattern":"y = analysis range number","description":"Normal/analysis ranges. ANRIND=normal range indicator, ANRLO/ANRHI=normal bounds, Ay*=analysis range y","adam_variables":["ANRIND","BNRIND","ANRLO","ANRLOC","ANRHI","ANRHIC","AyLO","AyLOC","AyHI","AyHIC","AyIND","ByIND"],"category":"Toxicity_Range"}},"end":{"id":"26","labels":["DataConcept","Value"],"properties":{"name":"analysis_value","data_type":"numeric | string","pattern":"AVALCATy = analysis value category y","description":"Analysis value for parameter. AVAL = numeric, AVALC = character, AVALCATy = categorization","adam_variables":["AVAL","AVALC","AVALCATy","AVALCAyN"],"category":"Value"}}}
{"type":"relationship","id":"1152933599234752568","label":"SCOPED_BY","properties":{"description":"Range is parameter-specific"},"start":{"id":"56","labels":["DataConcept","Toxicity_Range"],"properties":{"name":"analysis_range","data_type":"string | numeric","pattern":"y = analysis range number","description":"Normal/analysis ranges. ANRIND=normal range indicator, ANRLO/ANRHI=normal bounds, Ay*=analysis range y","adam_variables":["ANRIND","BNRIND","ANRLO","ANRLOC","ANRHI","ANRHIC","AyLO","AyLOC","AyHI","AyHIC","AyIND","ByIND"],"category":"Toxicity_Range"}},"end":{"id":"23","labels":["DataConcept","Parameter"],"properties":{"name":"parameter","data_type":"string | integer","pattern":"PARCATy = parameter category y for grouping","description":"Analysis parameter and categorizations. PARAMCD limited to 8 characters.","adam_variables":["PARAM","PARAMCD","PARAMN","PARCATy","PARCATyN"],"category":"Parameter"}}}
{"type":"relationship","id":"1152921504606847033","label":"BELONGS_TO_CATEGORY","start":{"id":"57","labels":["DataConcept","Time_to_Event"],"properties":{"name":"tte_origin","data_type":"datetime","description":"Time-to-event origin point (when subject entered risk)","adam_variables":["STARTDT","STARTDTM"],"category":"Time_to_Event"}},"end":{"id":"9","labels":["Category"],"properties":{"color":"#E6E6FA","name":"Time_to_Event","description":"Survival analysis concepts"}}}
{"type":"relationship","id":"1152931400211497017","label":"BELONGS_TO","properties":{"description":"TTE origin belongs to subject"},"start":{"id":"57","labels":["DataConcept","Time_to_Event"],"properties":{"name":"tte_origin","data_type":"datetime","description":"Time-to-event origin point (when subject entered risk)","adam_variables":["STARTDT","STARTDTM"],"category":"Time_to_Event"}},"end":{"id":"14","labels":["DataConcept","Identity"],"properties":{"name":"subject","data_type":"string","description":"Unique subject identifier. USUBJID is unique across studies, SUBJID is unique within study.","adam_variables":["USUBJID","SUBJID"],"source":"DM.USUBJID","category":"Identity"}}}
{"type":"relationship","id":"1152933599234752569","label":"SCOPED_BY","properties":{"description":"TTE origin is parameter-specific"},"start":{"id":"57","labels":["DataConcept","Time_to_Event"],"properties":{"name":"tte_origin","data_type":"datetime","description":"Time-to-event origin point (when subject entered risk)","adam_variables":["STARTDT","STARTDTM"],"category":"Time_to_Event"}},"end":{"id":"23","labels":["DataConcept","Parameter"],"properties":{"name":"parameter","data_type":"string | integer","pattern":"PARCATy = parameter category y for grouping","description":"Analysis parameter and categorizations. PARAMCD limited to 8 characters.","adam_variables":["PARAM","PARAMCD","PARAMN","PARCATy","PARCATyN"],"category":"Parameter"}}}
{"type":"relationship","id":"1152921504606847034","label":"BELONGS_TO_CATEGORY","start":{"id":"58","labels":["DataConcept","Time_to_Event"],"properties":{"name":"censor","data_type":"integer | string","description":"Censoring indicator. CNSR=0 (event) or 1 (censored), EVNTDESC=event description, CNSDTDSC=censor date description","adam_variables":["CNSR","EVNTDESC","CNSDTDSC"],"category":"Time_to_Event"}},"end":{"id":"9","labels":["Category"],"properties":{"color":"#E6E6FA","name":"Time_to_Event","description":"Survival analysis concepts"}}}
{"type":"relationship","id":"1152931400211497018","label":"BELONGS_TO","properties":{"description":"Censoring belongs to subject"},"start":{"id":"58","labels":["DataConcept","Time_to_Event"],"properties":{"name":"censor","data_type":"integer | string","description":"Censoring indicator. CNSR=0 (event) or 1 (censored), EVNTDESC=event description, CNSDTDSC=censor date description","adam_variables":["CNSR","EVNTDESC","CNSDTDSC"],"category":"Time_to_Event"}},"end":{"id":"14","labels":["DataConcept","Identity"],"properties":{"name":"subject","data_type":"string","description":"Unique subject identifier. USUBJID is unique across studies, SUBJID is unique within study.","adam_variables":["USUBJID","SUBJID"],"source":"DM.USUBJID","category":"Identity"}}}
{"type":"relationship","id":"1152933599234752570","label":"SCOPED_BY","properties":{"description":"Censoring is parameter-specific"},"start":{"id":"58","labels":["DataConcept","Time_to_Event"],"properties":{"name":"censor","data_type":"integer | string","description":"Censoring indicator. CNSR=0 (event) or 1 (censored), EVNTDESC=event description, CNSDTDSC=censor date description","adam_variables":["CNSR","EVNTDESC","CNSDTDSC"],"category":"Time_to_Event"}},"end":{"id":"23","labels":["DataConcept","Parameter"],"properties":{"name":"parameter","data_type":"string | integer","pattern":"PARCATy = parameter category y for grouping","description":"Analysis parameter and categorizations. PARAMCD limited to 8 characters.","adam_variables":["PARAM","PARAMCD","PARAMN","PARCATy","PARCATyN"],"category":"Parameter"}}}
{"type":"relationship","id":"1152921504606847035","label":"BELONGS_TO_CATEGORY","start":{"id":"59","labels":["DataConcept","Traceability"],"properties":{"name":"source","data_type":"string | integer","description":"Datapoint traceability. SRCDOM=source domain, SRCVAR=source variable, SRCSEQ=source sequence","adam_variables":["SRCDOM","SRCVAR","SRCSEQ"],"category":"Traceability"}},"end":{"id":"10","labels":["Category"],"properties":{"color":"#D4EDDA","name":"Traceability","description":"Source data traceability"}}}
{"type":"relationship","id":"1152951191420796987","label":"TRACES","properties":{"description":"Source variables trace analysis value origin"},"start":{"id":"59","labels":["DataConcept","Traceability"],"properties":{"name":"source","data_type":"string | integer","description":"Datapoint traceability. SRCDOM=source domain, SRCVAR=source variable, SRCSEQ=source sequence","adam_variables":["SRCDOM","SRCVAR","SRCSEQ"],"category":"Traceability"}},"end":{"id":"26","labels":["DataConcept","Value"],"properties":{"name":"analysis_value","data_type":"numeric | string","pattern":"AVALCATy = analysis value category y","description":"Analysis value for parameter. AVAL = numeric, AVALC = character, AVALCATy = categorization","adam_variables":["AVAL","AVALC","AVALCATy","AVALCAyN"],"category":"Value"}}}
{"type":"relationship","id":"1152952290932424763","label":"POINTS_TO","properties":{"description":"Source points to SDTM observation"},"start":{"id":"59","labels":["DataConcept","Traceability"],"properties":{"name":"source","data_type":"string | integer","description":"Datapoint traceability. SRCDOM=source domain, SRCVAR=source variable, SRCSEQ=source sequence","adam_variables":["SRCDOM","SRCVAR","SRCSEQ"],"category":"Traceability"}},"end":{"id":"25","labels":["DataConcept","Value"],"properties":{"name":"observation_value","data_type":"any","description":"Raw/collected observation value from SDTM source domains. Not stored directly in ADaM but is the source for AVAL.","adam_variables":["SDTM.--ORRES","SDTM.--STRESN","SDTM.--STRESC"],"source":"SDTM domains","category":"Value"}}}