{
  "sdtm": {
    "_meta": {
      "standard": "SDTM",
      "modelVersion": "v2.0",
      "igVersion": "v3.4",
      "sources": ["SDTM_v2.0.csv", "SDTMIG_v3.4.csv"]
    },
    "classVariables": {
      "GeneralObservations": {
        "identifiers": [
          { "name": "STUDYID", "label": "Study Identifier", "type": "Char", "role": "Identifier" },
          { "name": "DOMAIN", "label": "Domain Abbreviation", "type": "Char", "role": "Identifier" },
          { "name": "USUBJID", "label": "Unique Subject Identifier", "type": "Char", "role": "Identifier" },
          { "name": "--SEQ", "label": "Sequence Number", "type": "Num", "role": "Identifier" },
          { "name": "--GRPID", "label": "Group ID", "type": "Char", "role": "Identifier" },
          { "name": "--REFID", "label": "Reference ID", "type": "Char", "role": "Identifier" },
          { "name": "--SPID", "label": "Sponsor-Defined Identifier", "type": "Char", "role": "Identifier" },
          { "name": "--LNKID", "label": "Link ID", "type": "Char", "role": "Identifier" }
        ],
        "timing": [
          { "name": "VISITNUM", "label": "Visit Number", "type": "Num", "role": "Timing" },
          { "name": "VISIT", "label": "Visit Name", "type": "Char", "role": "Timing" },
          { "name": "VISITDY", "label": "Planned Study Day of Visit", "type": "Num", "role": "Timing" },
          { "name": "EPOCH", "label": "Epoch", "type": "Char", "role": "Timing" },
          { "name": "--DTC", "label": "Date/Time of Collection", "type": "Char", "role": "Timing" },
          { "name": "--STDTC", "label": "Start Date/Time of Observation", "type": "Char", "role": "Timing" },
          { "name": "--ENDTC", "label": "End Date/Time of Observation", "type": "Char", "role": "Timing" },
          { "name": "--DY", "label": "Study Day of Visit/Collection/Exam", "type": "Num", "role": "Timing" }
        ]
      },
      "Findings": {
        "topic": [
          { "name": "--TESTCD", "label": "Short Name of Measurement, Test, or Exam", "type": "Char", "role": "Topic" },
          { "name": "--TEST", "label": "Name of Measurement, Test, or Exam", "type": "Char", "role": "Synonym Qualifier" }
        ],
        "qualifiers": [
          { "name": "--CAT", "label": "Category", "type": "Char", "role": "Grouping Qualifier" },
          { "name": "--SCAT", "label": "Subcategory", "type": "Char", "role": "Grouping Qualifier" },
          { "name": "--POS", "label": "Position of Subject", "type": "Char", "role": "Record Qualifier" },
          { "name": "--LOC", "label": "Location", "type": "Char", "role": "Record Qualifier" },
          { "name": "--LAT", "label": "Laterality", "type": "Char", "role": "Variable Qualifier" },
          { "name": "--METHOD", "label": "Method", "type": "Char", "role": "Record Qualifier" },
          { "name": "--SPEC", "label": "Specimen Type", "type": "Char", "role": "Record Qualifier" },
          { "name": "--STAT", "label": "Completion Status", "type": "Char", "role": "Record Qualifier" }
        ],
        "results": [
          { "name": "--ORRES", "label": "Result or Finding in Original Units", "type": "Char", "role": "Result Qualifier" },
          { "name": "--ORRESU", "label": "Original Units", "type": "Char", "role": "Variable Qualifier" },
          { "name": "--ORNRLO", "label": "Normal Range Lower Limit-Original Units", "type": "Char", "role": "Variable Qualifier" },
          { "name": "--ORNRHI", "label": "Normal Range Upper Limit-Original Units", "type": "Char", "role": "Variable Qualifier" },
          { "name": "--STRESC", "label": "Result or Finding in Std Format", "type": "Char", "role": "Result Qualifier" },
          { "name": "--STRESN", "label": "Numeric Result/Finding in Std Units", "type": "Num", "role": "Result Qualifier" },
          { "name": "--STRESU", "label": "Standard Units", "type": "Char", "role": "Variable Qualifier" },
          { "name": "--STNRLO", "label": "Normal Range Lower Limit-Std Units", "type": "Num", "role": "Variable Qualifier" },
          { "name": "--STNRHI", "label": "Normal Range Upper Limit-Std Units", "type": "Num", "role": "Variable Qualifier" },
          { "name": "--NRIND", "label": "Normal/Abnormal/Reference Range Indicator", "type": "Char", "role": "Variable Qualifier" }
        ]
      },
      "Events": {
        "topic": [
          { "name": "--TERM", "label": "Reported Term", "type": "Char", "role": "Topic" },
          { "name": "--MODIFY", "label": "Modified Reported Term", "type": "Char", "role": "Synonym Qualifier" },
          { "name": "--DECOD", "label": "Dictionary-Derived Term", "type": "Char", "role": "Synonym Qualifier" }
        ],
        "qualifiers": [
          { "name": "--BODSYS", "label": "Body System or Organ Class", "type": "Char", "role": "Record Qualifier" },
          { "name": "--SEV", "label": "Severity/Intensity", "type": "Char", "role": "Record Qualifier" },
          { "name": "--SER", "label": "Serious Event", "type": "Char", "role": "Record Qualifier" },
          { "name": "--ACN", "label": "Action Taken with Study Treatment", "type": "Char", "role": "Record Qualifier" },
          { "name": "--REL", "label": "Causality", "type": "Char", "role": "Record Qualifier" },
          { "name": "--OUT", "label": "Outcome of Adverse Event", "type": "Char", "role": "Record Qualifier" },
          { "name": "--CAT", "label": "Category", "type": "Char", "role": "Grouping Qualifier" },
          { "name": "--SCAT", "label": "Subcategory", "type": "Char", "role": "Grouping Qualifier" },
          { "name": "--LOC", "label": "Location of Event", "type": "Char", "role": "Record Qualifier" },
          { "name": "--LAT", "label": "Laterality", "type": "Char", "role": "Variable Qualifier" }
        ]
      },
      "Interventions": {
        "topic": [
          { "name": "--TRT", "label": "Name of Treatment", "type": "Char", "role": "Topic" },
          { "name": "--MODIFY", "label": "Modified Treatment Name", "type": "Char", "role": "Synonym Qualifier" },
          { "name": "--DECOD", "label": "Standardized Treatment Name", "type": "Char", "role": "Synonym Qualifier" }
        ],
        "qualifiers": [
          { "name": "--CAT", "label": "Category", "type": "Char", "role": "Grouping Qualifier" },
          { "name": "--SCAT", "label": "Subcategory", "type": "Char", "role": "Grouping Qualifier" },
          { "name": "--DOSE", "label": "Dose", "type": "Num", "role": "Record Qualifier" },
          { "name": "--DOSU", "label": "Dose Units", "type": "Char", "role": "Variable Qualifier" },
          { "name": "--DOSFRM", "label": "Dose Form", "type": "Char", "role": "Variable Qualifier" },
          { "name": "--DOSFRQ", "label": "Dosing Frequency", "type": "Char", "role": "Record Qualifier" },
          { "name": "--ROUTE", "label": "Route of Administration", "type": "Char", "role": "Record Qualifier" },
          { "name": "--INDC", "label": "Indication", "type": "Char", "role": "Record Qualifier" },
          { "name": "--CLAS", "label": "Class", "type": "Char", "role": "Variable Qualifier" },
          { "name": "--LOC", "label": "Location of Administration", "type": "Char", "role": "Record Qualifier" }
        ]
      }
    },
    "concepts": {
      "Observation": {
        "variable": "--ORRES",
        "facets": {
          "Identification.Topic": "--TESTCD",
          "Result.Value": "--ORRES",
          "Result.Unit": "--ORRESU",
          "Timing.CollectionDateTime": "--DTC"
        },
        "byDataType": {
          "decimal": "--ORRES",
          "code": "--ORRESU",
          "string": "--ORRES"
        },
        "notes": "SDTM raw observation (Findings class). --ORRES is the original result as collected (may have mixed units across rows); --ORRESU the original unit. Used as INPUT by T.UnitConversion. The -- prefix is a placeholder substituted with the domain code (VS/LB/EG/etc.)."
      },
      "Measure": {
        "variable": "--STRESN/--STRESC",
        "facets": {
          "Result.Value": "--STRESN",
          "Result.Unit": "--STRESU"
        },
        "byDataType": {
          "decimal": "--STRESN",
          "code": "--STRESC",
          "string": "--STRESC"
        },
        "notes": "SDTM standardized result (Findings class). --STRESN holds the unit-converted numeric value; --STRESU the standardized unit code. Natural OUTPUT for T.UnitConversion."
      },
      "EventTerm": {
        "variable": "--TERM/--DECOD",
        "facets": {
          "Identification.Topic": "--TERM",
          "Coding.PreferredTerm": "--DECOD",
          "Coding.BodySystem": "--BODSYS",
          "Coding.HighLevelTerm": "--HLT",
          "Coding.HighLevelGroupTerm": "--HLGT",
          "Coding.LowLevelTerm": "--LLT",
          "Severity": "--SEV",
          "Seriousness": "--SER",
          "ActionTaken": "--ACN",
          "Causality": "--REL",
          "Outcome": "--OUT"
        },
        "byDataType": {
          "string": "--TERM",
          "code": "--DECOD"
        },
        "notes": "SDTM event observation (Events class). --TERM is the reported/verbatim term (Topic); --DECOD is the dictionary-derived preferred term. MedDRA hierarchy facets provide multi-level coding. The -- prefix is substituted with domain code (AE/MH/CE/etc.)."
      },
      "Intervention": {
        "variable": "--TRT/--DECOD",
        "facets": {
          "Identification.Topic": "--TRT",
          "Coding.StandardizedName": "--DECOD",
          "Coding.Class": "--CLAS",
          "Coding.ClassCode": "--CLASCD",
          "Dosing.Dose": "--DOSE",
          "Dosing.Unit": "--DOSU",
          "Dosing.Form": "--DOSFRM",
          "Dosing.Frequency": "--DOSFRQ",
          "Dosing.Route": "--ROUTE",
          "Indication": "--INDC"
        },
        "byDataType": {
          "string": "--TRT",
          "code": "--DECOD",
          "decimal": "--DOSE"
        },
        "notes": "SDTM intervention record (Interventions class). --TRT is the reported treatment name (Topic); --DECOD is the standardized/coded name. The -- prefix is substituted with domain code (CM/EX/EC/SU/etc.)."
      }
    },
    "dimensions": {
      "Subject": {
        "variable": "USUBJID",
        "byDataType": {
          "id": "USUBJID",
          "string": "USUBJID"
        },
        "notes": "Unique subject identifier (shared with ADaM — same concept, same variable name)"
      },
      "Parameter": {
        "variable": "--TESTCD/--TEST",
        "byDataType": {
          "code": "--TESTCD",
          "string": "--TEST"
        },
        "notes": "Test code and label. Domain-prefixed (VSTESTCD/VSTEST for VS, LBTESTCD/LBTEST for LB, etc.)"
      },
      "Timing": {
        "variable": "--DTC",
        "byDataType": {
          "date": "--DTC",
          "dateTime": "--DTC",
          "string": "--DTC"
        },
        "notes": "Collection date/time (VSDTC, LBDTC, etc.)"
      },
      "Visit": {
        "variable": "VISIT/VISITNUM",
        "byDataType": {
          "code": "VISIT",
          "string": "VISIT",
          "integer": "VISITNUM",
          "decimal": "VISITNUM"
        },
        "notes": "Protocol-defined visit (raw SDTM visit, not analysis visit)"
      },
      "Study": {
        "variable": "STUDYID",
        "byDataType": {
          "id": "STUDYID",
          "string": "STUDYID"
        }
      },
      "Site": {
        "variable": "SITEID",
        "byDataType": {
          "id": "SITEID",
          "string": "SITEID"
        }
      },
      "Treatment": {
        "variable": "ARM/ACTARM",
        "byDataType": {
          "code": "ARMCD",
          "string": "ARM"
        },
        "intentType": {
          "Planned": { "code": "ARMCD", "string": "ARM" },
          "Actual": { "code": "ACTARMCD", "string": "ACTARM" }
        },
        "notes": "Treatment arm from DM domain. Not domain-prefixed. IntentType qualifier selects Planned (ARM) vs Actual (ACTARM)."
      },
      "Category": {
        "variable": "--CAT/--SCAT",
        "byDataType": {
          "code": "--CAT",
          "string": "--CAT"
        },
        "notes": "Category grouping variable. --CAT is the primary category. Present in Events, Findings, and Interventions classes. Domain-prefixed."
      },
      "Subcategory": {
        "variable": "--SCAT",
        "byDataType": {
          "code": "--SCAT",
          "string": "--SCAT"
        },
        "notes": "Subcategory within --CAT. Present in Events, Findings, and Interventions classes. Domain-prefixed."
      },
      "Epoch": {
        "variable": "EPOCH",
        "byDataType": {
          "code": "EPOCH",
          "string": "EPOCH"
        },
        "notes": "Trial epoch (e.g., SCREENING, TREATMENT, FOLLOW-UP). A Timing variable from General Observations, not domain-prefixed."
      },
      "Location": {
        "variable": "--LOC",
        "byDataType": {
          "string": "--LOC",
          "code": "--LOC"
        },
        "notes": "Anatomical location of finding/event/intervention. Domain-prefixed."
      },
      "Laterality": {
        "variable": "--LAT",
        "byDataType": {
          "code": "--LAT",
          "string": "--LAT"
        },
        "notes": "Laterality qualifier for anatomical location (RIGHT, LEFT, BILATERAL). Domain-prefixed."
      },
      "Specimen": {
        "variable": "--SPEC",
        "byDataType": {
          "code": "--SPEC",
          "string": "--SPEC"
        },
        "notes": "Specimen type for laboratory/findings observations. Domain-prefixed (e.g., LBSPEC)."
      },
      "Method": {
        "variable": "--METHOD",
        "byDataType": {
          "code": "--METHOD",
          "string": "--METHOD"
        },
        "notes": "Method of test or examination. Domain-prefixed (e.g., VSMETHOD, EGMETHOD)."
      },
      "Position": {
        "variable": "--POS",
        "byDataType": {
          "code": "--POS",
          "string": "--POS"
        },
        "notes": "Position of subject during observation (e.g., STANDING, SITTING, SUPINE). Domain-prefixed."
      }
    }
  },
  "adam": {
    "_meta": {
      "standard": "ADaM",
      "igVersion": "v1.3",
      "occdsVersion": "v1.1",
      "sources": ["ADaMIG_v1.3.csv", "ADaM_OCCDS_v1.1.csv"]
    },
    "standardVariables": {
      "SubjectLevel": {
        "identifiers": [
          { "name": "STUDYID", "label": "Study Identifier", "type": "Char", "core": "Req" },
          { "name": "USUBJID", "label": "Unique Subject Identifier", "type": "Char", "core": "Req" },
          { "name": "SUBJID", "label": "Subject Identifier for the Study", "type": "Char", "core": "Req" },
          { "name": "SITEID", "label": "Study Site Identifier", "type": "Char", "core": "Req" },
          { "name": "SITEGRy", "label": "Pooled Site Group y", "type": "Char", "core": "Perm" },
          { "name": "REGIONy", "label": "Geographic Region y", "type": "Char", "core": "Perm" }
        ],
        "demographics": [
          { "name": "AGE", "label": "Age", "type": "Num", "core": "Req" },
          { "name": "AGEU", "label": "Age Units", "type": "Char", "core": "Req" },
          { "name": "AGEGRy", "label": "Pooled Age Group y", "type": "Char", "core": "Perm" },
          { "name": "AAGE", "label": "Analysis Age", "type": "Num", "core": "Cond" },
          { "name": "SEX", "label": "Sex", "type": "Char", "core": "Req" },
          { "name": "RACE", "label": "Race", "type": "Char", "core": "Req" },
          { "name": "RACEGRy", "label": "Pooled Race Group y", "type": "Char", "core": "Perm" },
          { "name": "ETHNIC", "label": "Ethnicity", "type": "Char", "core": "Perm" }
        ],
        "populationFlags": [
          { "name": "FASFL", "label": "Full Analysis Set Population Flag", "type": "Char", "core": "Cond", "values": "Y;N" },
          { "name": "SAFFL", "label": "Safety Population Flag", "type": "Char", "core": "Cond", "values": "Y;N" },
          { "name": "ITTFL", "label": "Intent-To-Treat Population Flag", "type": "Char", "core": "Cond", "values": "Y;N" },
          { "name": "PPROTFL", "label": "Per-Protocol Population Flag", "type": "Char", "core": "Cond", "values": "Y;N" },
          { "name": "COMPLFL", "label": "Completers Population Flag", "type": "Char", "core": "Cond", "values": "Y;N" },
          { "name": "RANDFL", "label": "Randomized Population Flag", "type": "Char", "core": "Cond", "values": "Y;N" },
          { "name": "ENRLFL", "label": "Enrolled Population Flag", "type": "Char", "core": "Cond", "values": "Y;N" }
        ],
        "treatment": [
          { "name": "ARM", "label": "Description of Planned Arm", "type": "Char", "core": "Req" },
          { "name": "ACTARM", "label": "Description of Actual Arm", "type": "Char", "core": "Perm" },
          { "name": "TRTxxP", "label": "Planned Treatment for Period xx", "type": "Char", "core": "Req" },
          { "name": "TRTxxPN", "label": "Planned Treatment for Period xx (N)", "type": "Num", "core": "Perm" },
          { "name": "TRTxxA", "label": "Actual Treatment for Period xx", "type": "Char", "core": "Cond" },
          { "name": "TRTxxAN", "label": "Actual Treatment for Period xx (N)", "type": "Num", "core": "Perm" }
        ]
      },
      "BasicDataStructure": {
        "parameter": [
          { "name": "PARAMCD", "label": "Parameter Code", "type": "Char", "core": "Req" },
          { "name": "PARAM", "label": "Parameter", "type": "Char", "core": "Req" },
          { "name": "PARAMN", "label": "Parameter (N)", "type": "Num", "core": "Perm" },
          { "name": "PARCATy", "label": "Parameter Category y", "type": "Char", "core": "Perm" },
          { "name": "PARCATyN", "label": "Parameter Category y (N)", "type": "Num", "core": "Perm" }
        ],
        "analysisValue": [
          { "name": "AVAL", "label": "Analysis Value", "type": "Num", "core": "Cond" },
          { "name": "AVALC", "label": "Analysis Value (C)", "type": "Char", "core": "Cond" },
          { "name": "AVALU", "label": "Analysis Value Unit", "type": "Char", "core": "Perm" },
          { "name": "BASE", "label": "Baseline Value", "type": "Num", "core": "Cond" },
          { "name": "BASEC", "label": "Baseline Value (C)", "type": "Char", "core": "Perm" },
          { "name": "CHG", "label": "Change from Baseline", "type": "Num", "core": "Cond" },
          { "name": "PCHG", "label": "Percent Change from Baseline", "type": "Num", "core": "Cond" },
          { "name": "BASETYPE", "label": "Baseline Type", "type": "Char", "core": "Cond" },
          { "name": "ABLFL", "label": "Baseline Record Flag", "type": "Char", "core": "Cond", "values": "Y" },
          { "name": "DTYPE", "label": "Derivation Type", "type": "Char", "core": "Cond" },
          { "name": "R2BASE", "label": "Ratio to Baseline", "type": "Num", "core": "Perm" }
        ],
        "treatment": [
          { "name": "TRTP", "label": "Planned Treatment", "type": "Char", "core": "Cond" },
          { "name": "TRTPN", "label": "Planned Treatment (N)", "type": "Num", "core": "Perm" },
          { "name": "TRTA", "label": "Actual Treatment", "type": "Char", "core": "Cond" },
          { "name": "TRTAN", "label": "Actual Treatment (N)", "type": "Num", "core": "Perm" },
          { "name": "TRTPGy", "label": "Planned Pooled Treatment y", "type": "Char", "core": "Perm" },
          { "name": "TRTPGyN", "label": "Planned Pooled Treatment y (N)", "type": "Num", "core": "Perm" },
          { "name": "TRTAGy", "label": "Actual Pooled Treatment y", "type": "Char", "core": "Cond" },
          { "name": "TRTAGyN", "label": "Actual Pooled Treatment y (N)", "type": "Num", "core": "Perm" }
        ],
        "timing": [
          { "name": "ADT", "label": "Analysis Date", "type": "Num", "core": "Cond" },
          { "name": "ATM", "label": "Analysis Time", "type": "Num", "core": "Cond" },
          { "name": "ADTM", "label": "Analysis Datetime", "type": "Num", "core": "Cond" },
          { "name": "ADY", "label": "Analysis Relative Day", "type": "Num", "core": "Cond" },
          { "name": "AVISIT", "label": "Analysis Visit", "type": "Char", "core": "Cond" },
          { "name": "AVISITN", "label": "Analysis Visit (N)", "type": "Num", "core": "Perm" },
          { "name": "ATPT", "label": "Analysis Timepoint", "type": "Char", "core": "Cond" },
          { "name": "ATPTN", "label": "Analysis Timepoint (N)", "type": "Num", "core": "Perm" },
          { "name": "ATPTREF", "label": "Analysis Timepoint Reference", "type": "Char", "core": "Perm" },
          { "name": "APHASE", "label": "Phase", "type": "Char", "core": "Perm" },
          { "name": "APHASEN", "label": "Phase (N)", "type": "Num", "core": "Perm" },
          { "name": "APERIOD", "label": "Period", "type": "Num", "core": "Cond" },
          { "name": "APERIODC", "label": "Period (C)", "type": "Char", "core": "Perm" }
        ]
      },
      "OccurrenceDataStructure": {
        "coding": [
          { "name": "--TERM", "label": "Reported Term", "type": "Char", "core": "Req" },
          { "name": "--DECOD", "label": "Dictionary-Derived Term", "type": "Char", "core": "Cond" },
          { "name": "--BODSYS", "label": "Body System or Organ Class", "type": "Char", "core": "Cond" },
          { "name": "--BDSYCD", "label": "Body System or Organ Class Code", "type": "Num", "core": "Perm" },
          { "name": "--HLT", "label": "High Level Term", "type": "Char", "core": "Cond" },
          { "name": "--HLTCD", "label": "High Level Term Code", "type": "Num", "core": "Perm" },
          { "name": "--HLGT", "label": "High Level Group Term", "type": "Char", "core": "Cond" },
          { "name": "--HLGTCD", "label": "High Level Group Term Code", "type": "Num", "core": "Perm" },
          { "name": "--LLT", "label": "Lowest Level Term", "type": "Char", "core": "Cond" },
          { "name": "--LLTCD", "label": "Lowest Level Term Code", "type": "Num", "core": "Perm" },
          { "name": "--PTCD", "label": "Preferred Term Code", "type": "Num", "core": "Perm" }
        ]
      }
    },
    "concepts": {
      "Measure": {
        "variable": "AVAL/AVALC/BASE",
        "byDataType": {
          "decimal": "AVAL",
          "baseline": "BASE",
          "code": "AVALC",
          "string": "AVALC"
        },
        "facets": {
          "Result.Value": "AVAL",
          "Result.Unit": "AVALU"
        },
        "notes": "Analysis value (numeric or character). BASE is the baseline value. Facets map the Measure concept's structural parts (Result.Value, Result.Unit) to the corresponding ADaM variables."
      },
      "Change": {
        "variable": "CHG",
        "byDataType": {
          "decimal": "CHG"
        },
        "notes": "Change from baseline"
      },
      "PercentChange": {
        "variable": "PCHG",
        "byDataType": {
          "decimal": "PCHG"
        },
        "notes": "Percent change from baseline"
      },
      "Shift": {
        "variable": "AVALC",
        "byDataType": {
          "code": "AVALC",
          "string": "AVALC"
        },
        "notes": "Shift category (character)"
      },
      "PeakValue": {
        "variable": "AVAL",
        "byDataType": {
          "decimal": "AVAL"
        },
        "notes": "Peak/extreme analysis value"
      },
      "AreaUnderCurve": {
        "variable": "AVAL",
        "byDataType": {
          "decimal": "AVAL"
        },
        "notes": "AUC-derived analysis value"
      },
      "EventCount": {
        "variable": "AVAL",
        "byDataType": {
          "decimal": "AVAL",
          "integer": "AVAL"
        },
        "notes": "Count of events"
      },
      "TimeToEvent": {
        "variable": "AVAL",
        "byDataType": {
          "decimal": "AVAL"
        },
        "notes": "Time-to-event duration"
      },
      "Flag": {
        "variable": "AVALC/xxxFL",
        "byDataType": {
          "code": "AVALC",
          "boolean": "xxxFL",
          "string": "AVALC"
        },
        "notes": "Flag indicator variable. AVALC/xxxFL cover BDS and subject-level flags. CNSR is the ADaM time-to-event censoring indicator (0 = event observed, 1 = censored) and is listed as an alternative rather than a byDataType primary, because a BDS dataset's flag is AVALC while only ADTTE carries CNSR \u2014 one concept, two dataset-class conventions.",
        "alternativeVariables": ["CNSR"]
      },
      "Category": {
        "variable": "AVALC",
        "byDataType": {
          "code": "AVALC",
          "string": "AVALC"
        },
        "notes": "Categorized analysis value"
      },
      "OccurrenceTerm": {
        "variable": "--TERM/--DECOD",
        "facets": {
          "Identification.ReportedTerm": "--TERM",
          "Coding.PreferredTerm": "--DECOD",
          "Coding.BodySystem": "--BODSYS",
          "Coding.HighLevelTerm": "--HLT",
          "Coding.HighLevelGroupTerm": "--HLGT",
          "Coding.LowLevelTerm": "--LLT"
        },
        "byDataType": {
          "string": "--TERM",
          "code": "--DECOD"
        },
        "notes": "ADaM OCCDS occurrence term. --TERM is the reported term; --DECOD is the dictionary-derived preferred term. MedDRA hierarchy facets provide multi-level coding. Used in ADAE, ADCM, and similar occurrence datasets. The -- prefix is substituted with the dataset-specific prefix (AE, CM, etc.)."
      }
    },
    "dimensions": {
      "Subject": {
        "variable": "USUBJID",
        "byDataType": {
          "id": "USUBJID",
          "string": "USUBJID"
        },
        "notes": "Unique subject identifier"
      },
      "Parameter": {
        "variable": "PARAMCD/PARAM",
        "byDataType": {
          "code": "PARAMCD",
          "string": "PARAM"
        },
        "notes": "Parameter code and label"
      },
      "Timing": {
        "variable": "ADT/ADY/ATPT",
        "byDataType": {
          "date": "ADT",
          "integer": "ADY",
          "decimal": "ADY",
          "string": "ATPT",
          "code": "ATPT"
        },
        "notes": "Analysis date, day, or timepoint"
      },
      "AnalysisVisit": {
        "variable": "AVISIT/AVISITN",
        "byDataType": {
          "code": "AVISIT",
          "string": "AVISIT",
          "decimal": "AVISITN",
          "integer": "AVISITN"
        },
        "notes": "Analysis visit (character/numeric)"
      },
      "Treatment": {
        "variable": "TRTA/TRTP",
        "byDataType": {
          "code": "TRTA",
          "string": "TRTA"
        },
        "intentType": {
          "Planned": {
            "code": "TRTP", "string": "TRTP", "integer": "TRTPN",
            "alternativeVariables": ["TRT01P", "TRT01PN", "ARM", "ARMCD"]
          },
          "Actual": {
            "code": "TRTA", "string": "TRTA", "integer": "TRTAN",
            "alternativeVariables": ["TRT01A", "TRT01AN", "ACTARM", "ACTARMCD"]
          }
        },
        "alternativeVariables": ["TRT01A", "TRT01P", "TRT01AN", "TRT01PN", "ARM", "ACTARM", "ARMCD", "ACTARMCD"],
        "notes": "Record-level treatment for BDS. TRTP/TRTA are planned/actual treatment labels. IntentType qualifier selects Planned vs Actual. Subject-level treatment (ARM/TRT01P/TRT01A) lives in ADSL — declared per-variant under alternativeVariables so the qualifier walk resolves correctly when only the subject-level columns are present (e.g. when the auxiliary source is ADSL)."
      },
      "Population": {
        "variable": "ITTFL/SAFFL/FASFL",
        "byDataType": {
          "intent_to_treat": "ITTFL",
          "safety": "SAFFL",
          "efficacy": "EFFFL",
          "full_analysis_set": "FASFL",
          "per_protocol": "PPROTFL",
          "completers": "COMPLFL",
          "randomized": "RANDFL",
          "enrolled": "ENRLFL"
        },
        "notes": "Population flag variables (Y/N) from ADSL. Standard flags: ITTFL (Intent-to-Treat), SAFFL (Safety), FASFL (Full Analysis Set), PPROTFL (Per-Protocol), COMPLFL (Completers), RANDFL (Randomized), ENRLFL (Enrolled)."
      },
      "Period": {
        "variable": "APERIOD/APERIODC",
        "byDataType": {
          "integer": "APERIOD",
          "decimal": "APERIOD",
          "code": "APERIODC",
          "string": "APERIODC"
        },
        "notes": "Analysis period (numeric/character)"
      },
      "Epoch": {
        "variable": "APHASE/APHASEN",
        "byDataType": {
          "code": "APHASE",
          "string": "APHASE",
          "integer": "APHASEN",
          "decimal": "APHASEN"
        },
        "notes": "Analysis phase/epoch. APHASE categorizes timing within a study (e.g., SCREENING, ON TREATMENT, FOLLOW-UP). Maps to SDTM EPOCH conceptually but is independently assigned in ADaM."
      },
      "Site": {
        "variable": "SITEID/SITEGR1",
        "byDataType": {
          "id": "SITEID",
          "code": "SITEGR1",
          "string": "SITEID"
        },
        "notes": "Study site identifier (SITEID) or pooled site group (SITEGR1)"
      },
      "Visit": {
        "variable": "VISIT/VISITNUM",
        "byDataType": {
          "code": "VISIT",
          "string": "VISIT",
          "integer": "VISITNUM",
          "decimal": "VISITNUM"
        },
        "notes": "Protocol-defined visit (character/numeric)"
      },
      "Study": {
        "variable": "STUDYID",
        "byDataType": {
          "id": "STUDYID",
          "string": "STUDYID"
        },
        "notes": "Study identifier"
      },
      "Timepoint": {
        "variable": "ATPT/ATPTN",
        "byDataType": {
          "code": "ATPT",
          "string": "ATPT",
          "integer": "ATPTN",
          "decimal": "ATPTN"
        },
        "notes": "Analysis timepoint (character/numeric)"
      },
      "Age": {
        "variable": "AGE/AGEGRy",
        "byDataType": {
          "decimal": "AGE",
          "integer": "AGE",
          "code": "AGEGRy",
          "string": "AGEGRy"
        },
        "notes": "Subject age from ADSL demographics. AGE is continuous; AGEGRy is pooled age group. AGEU provides units."
      },
      "Sex": {
        "variable": "SEX",
        "byDataType": {
          "code": "SEX",
          "string": "SEX"
        },
        "notes": "Subject sex from ADSL demographics."
      },
      "Race": {
        "variable": "RACE/RACEGRy",
        "byDataType": {
          "code": "RACE",
          "string": "RACE"
        },
        "notes": "Subject race from ADSL demographics. RACE is the collected value; RACEGRy is a pooled race grouping."
      },
      "Region": {
        "variable": "REGIONy/REGIONyN",
        "byDataType": {
          "code": "REGIONy",
          "string": "REGIONy",
          "integer": "REGIONyN",
          "decimal": "REGIONyN"
        },
        "notes": "Geographic region from ADSL. REGIONy is the character label; REGIONyN is numeric. The 'y' suffix is a numeric index (REGION1, REGION2, etc.)."
      }
    }
  },
  "omop": {
    "_meta": {
      "standard": "OMOP CDM",
      "version": "v5.4"
    },
    "concepts": {
      "Measure": {
        "variable": "measurement.value_as_number",
        "byDataType": {
          "decimal": "measurement.value_as_number",
          "code": "measurement.value_as_concept_id",
          "string": "measurement.value_as_string"
        },
        "notes": "Measurement value"
      },
      "Change": {
        "variable": "measurement.value_as_number",
        "notes": "Derived change value"
      },
      "PeakValue": {
        "variable": "measurement.value_as_number",
        "notes": "Peak measurement value"
      },
      "EventCount": {
        "variable": "observation.value_as_number",
        "notes": "Event count observation"
      },
      "TimeToEvent": {
        "variable": "observation.value_as_number",
        "notes": "Time-to-event observation"
      },
      "Flag": {
        "variable": "observation.value_as_concept_id",
        "byDataType": {
          "boolean": "observation.value_as_concept_id",
          "code": "observation.value_as_concept_id"
        },
        "notes": "Flag as concept reference"
      },
      "Shift": {
        "variable": "observation.value_as_string",
        "notes": "Shift as string observation"
      }
    },
    "dimensions": {
      "Subject": {
        "variable": "person_id",
        "notes": "Person identifier"
      },
      "Parameter": {
        "variable": "measurement_concept_id",
        "notes": "Measurement concept reference"
      },
      "Timing": {
        "variable": "measurement_date",
        "notes": "Measurement date"
      },
      "AnalysisVisit": {
        "variable": "visit_occurrence_id",
        "notes": "Visit occurrence reference"
      },
      "Treatment": {
        "variable": "drug_exposure table",
        "notes": "Drug exposure records"
      },
      "Population": {
        "variable": "cohort table",
        "notes": "Cohort membership"
      },
      "Period": {
        "variable": "observation_period",
        "notes": "Observation period record"
      },
      "Site": {
        "variable": "care_site_id",
        "notes": "Care site reference"
      },
      "Visit": {
        "variable": "visit_occurrence.visit_concept_id",
        "notes": "Visit occurrence concept"
      },
      "Study": {
        "variable": "metadata.study_id",
        "notes": "Study metadata identifier"
      },
      "Timepoint": {
        "variable": "visit_detail.visit_detail_concept_id",
        "notes": "Visit detail concept"
      }
    }
  },
  "fhir": {
    "_meta": {
      "standard": "HL7 FHIR",
      "version": "R5"
    },
    "concepts": {
      "Measure": {
        "variable": "Observation.valueQuantity.value",
        "byDataType": {
          "decimal": "Observation.valueQuantity.value",
          "code": "Observation.valueCodeableConcept",
          "string": "Observation.valueString"
        },
        "notes": "Observation value (R5 value[x])"
      },
      "Change": {
        "variable": "Observation.valueQuantity.value",
        "byDataType": {
          "decimal": "Observation.valueQuantity.value"
        },
        "notes": "Change from baseline observation"
      },
      "PercentChange": {
        "variable": "Observation.valueQuantity.value",
        "byDataType": {
          "decimal": "Observation.valueQuantity.value"
        },
        "notes": "Percent change observation"
      },
      "Shift": {
        "variable": "Observation.valueCodeableConcept",
        "byDataType": {
          "code": "Observation.valueCodeableConcept",
          "string": "Observation.valueString"
        },
        "notes": "Shift category observation"
      },
      "PeakValue": {
        "variable": "Observation.valueQuantity.value",
        "byDataType": {
          "decimal": "Observation.valueQuantity.value"
        },
        "notes": "Peak value observation"
      },
      "AreaUnderCurve": {
        "variable": "Observation.valueQuantity.value",
        "byDataType": {
          "decimal": "Observation.valueQuantity.value"
        },
        "notes": "AUC-derived observation"
      },
      "EventCount": {
        "variable": "Observation.valueInteger",
        "byDataType": {
          "decimal": "Observation.valueQuantity.value",
          "integer": "Observation.valueInteger"
        },
        "notes": "Event count observation"
      },
      "TimeToEvent": {
        "variable": "Observation.valueQuantity.value",
        "byDataType": {
          "decimal": "Observation.valueQuantity.value"
        },
        "notes": "Time-to-event duration"
      },
      "Flag": {
        "variable": "Observation.valueBoolean",
        "byDataType": {
          "boolean": "Observation.valueBoolean",
          "code": "Observation.valueCodeableConcept",
          "string": "Observation.valueString"
        },
        "notes": "Flag indicator observation"
      },
      "Category": {
        "variable": "Observation.valueCodeableConcept",
        "byDataType": {
          "code": "Observation.valueCodeableConcept",
          "string": "Observation.valueString"
        },
        "notes": "Categorized observation value"
      }
    },
    "dimensions": {
      "Subject": {
        "variable": "Patient.identifier",
        "byDataType": {
          "id": "Patient.identifier",
          "string": "Patient.identifier"
        },
        "notes": "Patient resource identifier"
      },
      "Parameter": {
        "variable": "Observation.code",
        "byDataType": {
          "code": "Observation.code",
          "string": "Observation.code.text"
        },
        "notes": "Observation code (LOINC/SNOMED)"
      },
      "Timing": {
        "variable": "Observation.effectiveDateTime",
        "byDataType": {
          "date": "Observation.effectiveDateTime",
          "dateTime": "Observation.effectiveDateTime",
          "string": "Observation.effectiveDateTime"
        },
        "notes": "Observation effective date/time"
      },
      "AnalysisVisit": {
        "variable": "Encounter.identifier",
        "byDataType": {
          "code": "Encounter.identifier",
          "string": "Encounter.identifier",
          "integer": "Encounter.identifier"
        },
        "notes": "Encounter identifier for visit"
      },
      "Treatment": {
        "variable": "MedicationAdministration.medicationCodeableConcept",
        "byDataType": {
          "code": "MedicationAdministration.medicationCodeableConcept",
          "string": "MedicationAdministration.medicationCodeableConcept.text"
        },
        "notes": "Medication administration reference"
      },
      "Population": {
        "variable": "Group.member",
        "byDataType": {
          "code": "Group.member",
          "boolean": "Group.member"
        },
        "notes": "Group membership (cohort)"
      },
      "Period": {
        "variable": "EpisodeOfCare.period",
        "byDataType": {
          "date": "EpisodeOfCare.period.start",
          "dateTime": "EpisodeOfCare.period",
          "string": "EpisodeOfCare.period"
        },
        "notes": "Episode of care period"
      },
      "Site": {
        "variable": "Location.identifier",
        "byDataType": {
          "id": "Location.identifier",
          "string": "Location.identifier"
        },
        "notes": "Location resource identifier (study site)"
      },
      "Visit": {
        "variable": "Encounter.type",
        "byDataType": {
          "code": "Encounter.type",
          "string": "Encounter.type.text"
        },
        "notes": "Encounter type (protocol visit)"
      },
      "Study": {
        "variable": "ResearchStudy.identifier",
        "byDataType": {
          "id": "ResearchStudy.identifier",
          "string": "ResearchStudy.identifier"
        },
        "notes": "ResearchStudy resource identifier"
      },
      "Timepoint": {
        "variable": "Encounter.serviceType",
        "byDataType": {
          "code": "Encounter.serviceType",
          "string": "Encounter.serviceType.text"
        },
        "notes": "Encounter service type (timepoint)"
      }
    }
  }
}
