Version;Data Structure Name;Variable Set;Variable Name;Variable Label;Type;CDISC CT Codelist Code(s);CDISC CT Codelist Submission Value(s);Described Value Domain(s);Value List;Core;CDISC Notes
ADaMIG v1.3;Subject-Level Analysis Dataset;Identifier;STUDYID;Study Identifier;Char;;;;;Req;DM.STUDYID
ADaMIG v1.3;Subject-Level Analysis Dataset;Identifier;USUBJID;Unique Subject Identifier;Char;;;;;Req;DM.USUBJID
ADaMIG v1.3;Subject-Level Analysis Dataset;Identifier;SUBJID;Subject Identifier for the Study;Char;;;;;Req;DM.SUBJID. SUBJID is required in ADSL, but permissible in other datasets.
ADaMIG v1.3;Subject-Level Analysis Dataset;Identifier;SITEID;Study Site Identifier;Char;;;;;Req;DM.SITEID. SITEID is required in ADSL, but permissible in other datasets.
ADaMIG v1.3;Subject-Level Analysis Dataset;Identifier;SITEGRy;Pooled Site Group y;Char;;;;;Perm;"Character description of a grouping or pooling of clinical sites for analysis purposes. For example, SITEGR3 is the name of a variable containing site group (pooled site) names, where the grouping has been done according to the third site grouping algorithm, defined in variable metadata; SITEGR3 does not mean the third group of sites."
ADaMIG v1.3;Subject-Level Analysis Dataset;Identifier;SITEGRyN;Pooled Site Group y (N);Num;;;;;Perm;Numeric representation of SITEGRy. There must be a one-to-one relationship between SITEGRyN and SITEGRy within a study. \n SITEGRyN cannot be present unless SITEGRy is also present. When SITEGRy and SITEGRyN are present, then on a given record, either both must be populated or both must be null.
ADaMIG v1.3;Subject-Level Analysis Dataset;Identifier;REGIONy;Geographic Region y;Char;;;;;Perm;"Character description of geographical region. For example, REGION1 might have values of ""Asia"", ""Europe"", ""North America"", ""Rest of World""; REGION2 might have values of ""United States"", ""Rest of World""."
ADaMIG v1.3;Subject-Level Analysis Dataset;Identifier;REGIONyN;Geographic Region y (N);Num;;;;;Perm;Numeric representation of REGIONy. Orders REGIONy for analysis and reporting.There must be a one-to-one relationship between REGIONyN and REGIONy within a study. \n REGIONyN cannot be present unless REGIONy is also present. When REGIONy and REGIONyN are present, then on a given record, either both must be populated or both must be null.
ADaMIG v1.3;Subject-Level Analysis Dataset;Subject Demographics;AGE;Age;Num;;;;;Req;DM.AGE. If analysis needs require a derived age that does not match DM.AGE, then AAGE must be added
ADaMIG v1.3;Subject-Level Analysis Dataset;Subject Demographics;AGEU;Age Units;Char;C66781;AGEU;;;Req;DM.AGEU
ADaMIG v1.3;Subject-Level Analysis Dataset;Subject Demographics;AGEGRy;Pooled Age Group y;Char;;;;;Perm;"Character description of a grouping or pooling of the subject's age for analysis purposes. For example, AGEGR1 might have values of ""<18"", ""18-65"", and "">65""; AGEGR2 might have values of ""Less than 35 y old"" and ""At least 35 y old""."
ADaMIG v1.3;Subject-Level Analysis Dataset;Subject Demographics;AGEGRyN;Pooled Age Group y (N);Num;;;;;Perm;Numeric representation of AGEGRy. Orders the grouping or pooling of subject age for analysis and reporting. There must be a one-to-one relationship between AGEGRyN and AGEGRy within a study. \n AGEGRyN cannot be present unless AGEGRy is also present. When AGEGRy and AGEGRyN are present, then on a given record, either both must be populated or both must be null.
ADaMIG v1.3;Subject-Level Analysis Dataset;Subject Demographics;AAGE;Analysis Age;Num;;;;;Cond;Age used for analysis that may be derived differently than DM.AGE. AAGE is required if age is calculated differently than DM.AGE.
ADaMIG v1.3;Subject-Level Analysis Dataset;Subject Demographics;SEX;Sex;Char;C66731;SEX;;;Req;DM.SEX.
ADaMIG v1.3;Subject-Level Analysis Dataset;Subject Demographics;RACE;Race;Char;C74457;RACE;;;Req;DM.RACE.
ADaMIG v1.3;Subject-Level Analysis Dataset;Subject Demographics;RACEGRy;Pooled Race Group y;Char;;;;;Perm;Character description of a grouping or pooling of the subject's race for analysis purposes.
ADaMIG v1.3;Subject-Level Analysis Dataset;Subject Demographics;RACEGRyN;Pooled Race Group y (N);Num;;;;;Perm;Numeric representation of RACEGRy. Orders the grouping or pooling of subject race for analysis and reporting. There must be a one-to-one relationship between RACEGRyN and RACEGRy within a study. \n RACEGRyN cannot be present unless RACEGRy is also present. When RACEGRy and RACEGRyN are present, then on a given record, either both must be populated or both must be null.
ADaMIG v1.3;Subject-Level Analysis Dataset;Population Indicator;FASFL;Full Analysis Set Population Flag;Char;;;;"Y; N";Cond;These flags identify whether or not the subject is included in the specified population. A minimum of one subject-level population flag variable is required in ADSL. \n Not all of the indicators listed here need to be included in ADSL. As stated in Section 3.1.4, Flag Variable Conventions, only those indicators corresponding to populations defined in the statistical analysis plan or populations used as a basis for analysis need be included in ADSL. \n This list of flags is not meant to be all-inclusive. Additional population flags may be added. \n The values of subject-level population flags cannot be blank. If a flag is used, the corresponding numeric version (*FN, where 0 = No and 1 = Yes) of the population flag can also be included. Please also refer to Section 3.1.4, Flag Variable Conventions.
ADaMIG v1.3;Subject-Level Analysis Dataset;Population Indicator;SAFFL;Safety Population Flag;Char;;;;"Y; N";Cond;These flags identify whether or not the subject is included in the specified population. A minimum of one subject-level population flag variable is required in ADSL. \n Not all of the indicators listed here need to be included in ADSL. As stated in Section 3.1.4, Flag Variable Conventions, only those indicators corresponding to populations defined in the statistical analysis plan or populations used as a basis for analysis need be included in ADSL. \n This list of flags is not meant to be all-inclusive. Additional population flags may be added. \n The values of subject-level population flags cannot be blank. If a flag is used, the corresponding numeric version (*FN, where 0 = No and 1 = Yes) of the population flag can also be included. Please also refer to Section 3.1.4, Flag Variable Conventions.
ADaMIG v1.3;Subject-Level Analysis Dataset;Population Indicator;ITTFL;Intent-To-Treat Population Flag;Char;;;;"Y; N";Cond;These flags identify whether or not the subject is included in the specified population. A minimum of one subject-level population flag variable is required in ADSL. \n Not all of the indicators listed here need to be included in ADSL. As stated in Section 3.1.4, Flag Variable Conventions, only those indicators corresponding to populations defined in the statistical analysis plan or populations used as a basis for analysis need be included in ADSL. \n This list of flags is not meant to be all-inclusive. Additional population flags may be added. \n The values of subject-level population flags cannot be blank. If a flag is used, the corresponding numeric version (*FN, where 0 = No and 1 = Yes) of the population flag can also be included. Please also refer to Section 3.1.4, Flag Variable Conventions.
ADaMIG v1.3;Subject-Level Analysis Dataset;Population Indicator;PPROTFL;Per-Protocol Population Flag;Char;;;;"Y; N";Cond;These flags identify whether or not the subject is included in the specified population. A minimum of one subject-level population flag variable is required in ADSL. \n Not all of the indicators listed here need to be included in ADSL. As stated in Section 3.1.4, Flag Variable Conventions, only those indicators corresponding to populations defined in the statistical analysis plan or populations used as a basis for analysis need be included in ADSL. \n This list of flags is not meant to be all-inclusive. Additional population flags may be added. \n The values of subject-level population flags cannot be blank. If a flag is used, the corresponding numeric version (*FN, where 0 = No and 1 = Yes) of the population flag can also be included. Please also refer to Section 3.1.4, Flag Variable Conventions.
ADaMIG v1.3;Subject-Level Analysis Dataset;Population Indicator;COMPLFL;Completers Population Flag;Char;;;;"Y; N";Cond;These flags identify whether or not the subject is included in the specified population. A minimum of one subject-level population flag variable is required in ADSL. \n Not all of the indicators listed here need to be included in ADSL. As stated in Section 3.1.4, Flag Variable Conventions, only those indicators corresponding to populations defined in the statistical analysis plan or populations used as a basis for analysis need be included in ADSL. \n This list of flags is not meant to be all-inclusive. Additional population flags may be added. \n The values of subject-level population flags cannot be blank. If a flag is used, the corresponding numeric version (*FN, where 0 = No and 1 = Yes) of the population flag can also be included. Please also refer to Section 3.1.4, Flag Variable Conventions.
ADaMIG v1.3;Subject-Level Analysis Dataset;Population Indicator;RANDFL;Randomized Population Flag;Char;;;;"Y; N";Cond;These flags identify whether or not the subject is included in the specified population. A minimum of one subject-level population flag variable is required in ADSL. \n Not all of the indicators listed here need to be included in ADSL. As stated in Section 3.1.4, Flag Variable Conventions, only those indicators corresponding to populations defined in the statistical analysis plan or populations used as a basis for analysis need be included in ADSL. \n This list of flags is not meant to be all-inclusive. Additional population flags may be added. \n The values of subject-level population flags cannot be blank. If a flag is used, the corresponding numeric version (*FN, where 0 = No and 1 = Yes) of the population flag can also be included. Please also refer to Section 3.1.4, Flag Variable Conventions.
ADaMIG v1.3;Subject-Level Analysis Dataset;Population Indicator;ENRLFL;Enrolled Population Flag;Char;;;;"Y; N";Cond;These flags identify whether or not the subject is included in the specified population. A minimum of one subject-level population flag variable is required in ADSL. \n Not all of the indicators listed here need to be included in ADSL. As stated in Section 3.1.4, Flag Variable Conventions, only those indicators corresponding to populations defined in the statistical analysis plan or populations used as a basis for analysis need be included in ADSL. \n This list of flags is not meant to be all-inclusive. Additional population flags may be added. \n The values of subject-level population flags cannot be blank. If a flag is used, the corresponding numeric version (*FN, where 0 = No and 1 = Yes) of the population flag can also be included. Please also refer to Section 3.1.4, Flag Variable Conventions.
ADaMIG v1.3;Subject-Level Analysis Dataset;Treatment;ARM;Description of Planned Arm;Char;;;;;Req;DM.ARM
ADaMIG v1.3;Subject-Level Analysis Dataset;Treatment;ACTARM;Description of Actual Arm;Char;;;;;Perm;DM.ACTARM
ADaMIG v1.3;Subject-Level Analysis Dataset;Treatment;TRTxxP;Planned Treatment for Period xx;Char;;;;;Req;Subject-level identifier that represents the planned treatment for period xx. In a one-period randomized trial, TRT01P would be the treatment to which the subject was randomized. TRTxxP might be derived from the SDTM DM variable ARM. At least TRT01P is required.
ADaMIG v1.3;Subject-Level Analysis Dataset;Treatment;TRTxxPN;Planned Treatment for Period xx (N);Num;;;;;Perm;Numeric representation of TRTxxP. There must be a one-to-one relationship between TRTxxPN and TRTxxP within a study. \n TRTxxPN cannot be present unless TRTxxP is also present. When TRTxxP and TRTxxPN are present, then on a given record, either both must be populated or both must be null.
ADaMIG v1.3;Subject-Level Analysis Dataset;Treatment;TRTxxA;Actual Treatment for Period xx;Char;;;;;Cond;Subject-level identifier that represents the actual treatment for the subject for period xx. Required when actual treatment does not match planned and there is an analysis of the data as treated.
ADaMIG v1.3;Subject-Level Analysis Dataset;Treatment;TRTxxAN;Actual Treatment for Period xx (N);Num;;;;;Perm;Numeric representation of TRTxxA. There must be a one-to-one relationship between TRTxxAN and TRTxxA within a study. \n TRTxxAN cannot be present unless TRTxxA is also present. When TRTxxA and TRTxxAN are present, then on a given record, either both must be populated or both must be null.
ADaMIG v1.3;Subject-Level Analysis Dataset;Treatment;TRTSEQP;Planned Sequence of Treatments;Char;;;;;Cond;"Required when there is an analysis based on the sequence of treatments, for example in a crossover design. TRTSEQP is not necessarily equal to ARM, for example if ARM contains elements that are not relevant to analysis of treatments or ARM is not fully descriptive (e.g., ""GROUP 1,"" ""GROUP 2""). When analyzing based on the sequence of treatments, TRTSEQP is required even if identical to ARM."
ADaMIG v1.3;Subject-Level Analysis Dataset;Treatment;TRTSEQPN;Planned Sequence of Treatments (N);Num;;;;;Perm;Numeric representation of TRTSEQP. There must be a one-to-one relationship between TRTSEQPN and TRTSEQP within a study. \n TRTSEQPN cannot be present unless TRTSEQP is also present. When TRTSEQP and TRTSEQPN are present, then on a given record, either both must be populated or both must be null.
ADaMIG v1.3;Subject-Level Analysis Dataset;Treatment;TRTSEQA;Actual Sequence of Treatments;Char;;;;;Cond;TRTSEQA is required if a situation occurred in the conduct of the trial where a subject received a sequence of treatments other than what was planned and there is an analysis based on the sequence of treatments.
ADaMIG v1.3;Subject-Level Analysis Dataset;Treatment;TRTSEQAN;Actual Sequence of Treatments (N);Num;;;;;Perm;Numeric representation of TRTSEQA. There must be a one-to-one relationship between TRTSEQAN and TRTSEQA within a study. \n TRTSEQAN cannot be present unless TRTSEQA is also present. When TRTSEQA and TRTSEQAN are present, then on a given record, either both must be populated or both must be null.
ADaMIG v1.3;Subject-Level Analysis Dataset;Treatment;TRxxPGy;Planned Pooled Treatment y for Period xx;Char;;;;;Perm;"Planned pooled treatment y for period xx. Useful when planned treatments (TRTxxP) in the specified period xx are pooled together for analysis according to pooling algorithm y. For example when in period 2 the first pooling algorithm dictates that all doses of Drug A (TR02PG1=""All doses of Drug A"") are pooled together for comparison to all doses of Drug B (TR02PG1=""All doses of Drug B""). Each value of TRTxxP is pooled within at most one value of TRxxPGy."
ADaMIG v1.3;Subject-Level Analysis Dataset;Treatment;TRxxPGyN;Planned Pooled Trt y for Period xx (N);Num;;;;;Perm;Numeric representation of TRxxPGy. There must be a one-to-one relationship between TRxxPGyN and TRxxPGy within a study. \n TRxxPGyN cannot be present unless TRxxPGy is also present. When TRxxPGy and TRxxPGyN are present, then on a given record, either both must be populated or both must be null.
ADaMIG v1.3;Subject-Level Analysis Dataset;Treatment;TRxxAGy;Actual Pooled Treatment y for Period xx;Char;;;;;Cond;Actual pooled treatment y for period xx. Required when TRxxPGy is present and TRTxxA is present.
ADaMIG v1.3;Subject-Level Analysis Dataset;Treatment;TRxxAGyN;Actual Pooled Trt y for Period xx (N);Num;;;;;Perm;Numeric representation of TRxxAGy. There must be a one-to-one relationship between TRxxAGyN and TRxxAGy within a study. \n TRxxAGyN cannot be present unless TRxxAGy is also present. When TRxxAGy and TRxxAGyN are present, then on a given record, either both must be populated or both must be null.
ADaMIG v1.3;Subject-Level Analysis Dataset;Treatment;TSEQPGy;Planned Pooled Treatment Sequence y;Char;;;;;Perm;Planned pooled treatment sequence y. Useful when planned treatment sequences (TRTSEQP) are pooled together for analysis according to pooling algorithm y. For example, this might be used in an analysis of an extension study when the analysis is based on what the subject received in the parent study as well as in the extension study.
ADaMIG v1.3;Subject-Level Analysis Dataset;Treatment;TSEQPGyN;Planned Pooled Treatment Sequence y (N);Num;;;;;Perm;Numeric representation of TSEQPGy. There must be a one-to-one relationship between TSEQPGyN and TSEQPGy within a study. \n TSEQPGyN cannot be present unless TSEQPGy is also present. When TSEQPGy and TSEQPGyN are present, then on a given record, either both must be populated or both must be null.
ADaMIG v1.3;Subject-Level Analysis Dataset;Treatment;TSEQAGy;Actual Pooled Treatment Sequence y;Char;;;;;Cond;Actual pooled treatment sequence y. Required when TSEQPGy is present and TRTSEQA is present.
ADaMIG v1.3;Subject-Level Analysis Dataset;Treatment;TSEQAGyN;Actual Pooled Treatment Sequence y (N);Num;;;;;Perm;Numeric representation of TSEQAGy. There must be a one-to-one relationship between TSEQAGyN and TSEQAGy within a study. \n TSEQAGyN cannot be present unless TSEQAGy is also present. When TSEQAGy and TSEQAGyN are present, then on a given record, either both must be populated or both must be null.
ADaMIG v1.3;Subject-Level Analysis Dataset;Dose;DOSExxP;Planned Treatment Dose for Period xx;Num;;;;;Perm;Subject-level identifier that represents the planned treatment dosage for period xx.
ADaMIG v1.3;Subject-Level Analysis Dataset;Dose;DOSExxA;Actual Treatment Dose for Period xx;Num;;;;;Perm;Subject-level identifier that represents the actual treatment dosage for period xx.
ADaMIG v1.3;Subject-Level Analysis Dataset;Dose;DOSExxU;Units for Dose for Period xx;Char;;;;;Perm;"The units for DOSExxP and DOSExxA. It is permissible to use suffixes such as ""P"" and ""A"" if needed, with labels modified accordingly."
ADaMIG v1.3;Subject-Level Analysis Dataset;Treatment Timing;TRTSDT;Date of First Exposure to Treatment;Num;;;;;Cond;Date of first exposure to treatment for a subject in a study. TRTSDT and/or TRTSDTM are required if there is an investigational product. Note that TRTSDT is not required to have the same value as the SDTM DM variable RFXSTDTC. While both of these dates reflect the concept of first exposure, the ADaM date may be derived to support the analysis which may not necessarily be the very first date in the SDTM EX domain.
ADaMIG v1.3;Subject-Level Analysis Dataset;Treatment Timing;TRTSTM;Time of First Exposure to Treatment;Num;;;;;Perm;Time of first exposure to treatment for a subject in a study.
ADaMIG v1.3;Subject-Level Analysis Dataset;Treatment Timing;TRTSDTM;Datetime of First Exposure to Treatment;Num;;;;;Cond;Datetime of first exposure to treatment for a subject in a study. TRTSDT and/or TRTSDTM are required if there is an investigational product.
ADaMIG v1.3;Subject-Level Analysis Dataset;Treatment Timing;TRTSDTF;Date of First Exposure Imput. Flag;Char;C81223;DATEFL;;;Cond;The level of imputation of date of first exposure to treatment. If TRTSDT (or the date part of TRTSDTM) was imputed, TRTSDTF must be populated and is required. See Section 3.1.3, Date and Time Imputation Flag Variables.
ADaMIG v1.3;Subject-Level Analysis Dataset;Treatment Timing;TRTSTMF;Time of First Exposure Imput. Flag;Char;C81226;TIMEFL;;;Cond;The level of imputation of time of first exposure to treatment. If TRTSTM (or the time part of TRTSDTM) was imputed, TRTSTMF must be populated and is required. See Section 3.1.3, Date and Time Imputation Flag Variables.
ADaMIG v1.3;Subject-Level Analysis Dataset;Treatment Timing;TRTEDT;Date of Last Exposure to Treatment;Num;;;;;Cond;Date of last exposure to treatment for a subject in a study. TRTEDT and/or TRTEDTM are required if there is an investigational product. Note that TRTEDT is not required to have the same value as the SDTM DM variable RFXENDTC. While both of these dates reflect the concept of last exposure, the ADaM date may be derived to support the analysis which may not necessarily be the very last date in the SDTM EX domain.
ADaMIG v1.3;Subject-Level Analysis Dataset;Treatment Timing;TRTETM;Time of Last Exposure to Treatment;Num;;;;;Perm;Time of last exposure to treatment for a subject in a study.
ADaMIG v1.3;Subject-Level Analysis Dataset;Treatment Timing;TRTEDTM;Datetime of Last Exposure to Treatment;Num;;;;;Cond;Datetime of last exposure to treatment for a subject in a study. TRTEDT and/or TRTEDTM are required if there is an investigational product.
ADaMIG v1.3;Subject-Level Analysis Dataset;Treatment Timing;TRTEDTF;Date of Last Exposure Imput. Flag;Char;C81223;DATEFL;;;Cond;The level of imputation of date of last exposure to treatment. If TRTEDT (or the date part of TRTEDTM) was imputed, TRTEDTF must be populated and is required. See Section 3.1.3, Date and Time Imputation Flag Variables.
ADaMIG v1.3;Subject-Level Analysis Dataset;Treatment Timing;TRTETMF;Time of Last Exposure Imput. Flag;Char;C81226;TIMEFL;;;Cond;The level of imputation of time of last exposure to treatment. If TRTETM (or the time part of TRTEDTM) was imputed, TRTETMF must be populated and is required. See Section 3.1.3, Date and Time Imputation Flag Variables.
ADaMIG v1.3;Subject-Level Analysis Dataset;Treatment Timing;TRxxSDT;Date of First Exposure in Period xx;Num;;;;;Cond;Date of first exposure to treatment in period xx. TRxxSDT and/or TRxxSDTM are only required in trial designs where multiple treatment periods are defined (i.e., required when there is a TRTxxP other than TRT01P). Examples include crossover designs or designs where multiple periods exist for the same treatment.
ADaMIG v1.3;Subject-Level Analysis Dataset;Treatment Timing;TRxxSTM;Time of First Exposure in Period xx;Num;;;;;Cond;Starting time of exposure to treatment in period xx. TRxxSTM and/or TRxxSDTM are only required in trial designs where starting time is important to the analysis and multiple treatment periods are defined (i.e., required when there is a TRTxxP other than TRT01P).
ADaMIG v1.3;Subject-Level Analysis Dataset;Treatment Timing;TRxxSDTM;Datetime of First Exposure in Period xx;Num;;;;;Cond;Datetime of first exposure to treatment in period xx. TRxxSDTM is only required in trial designs where multiple treatment periods are defined (i.e., required when there is a TRTxxP other than TRT01P).
ADaMIG v1.3;Subject-Level Analysis Dataset;Treatment Timing;TRxxSDTF;Date 1st Exposure Period xx Imput. Flag;Char;C81223;DATEFL;;;Cond;The level of imputation of date of first exposure to treatment in period xx. If TRxxSDT (or the date part of TRxxSDTM) was imputed, TRxxSDTF must be populated and is required. See Section 3.1.3, Date and Time Imputation Flag Variables.
ADaMIG v1.3;Subject-Level Analysis Dataset;Treatment Timing;TRxxSTMF;Time 1st Exposure Period xx Imput. Flag;Char;C81226;TIMEFL;;;Cond;The level of imputation of time of first exposure to treatment in period xx. If TRxxSTM (or the time part of TRxxSDTM) was imputed, TRxxSTMF must be populated and is required. See Section 3.1.3, Date and Time Imputation Flag Variables.
ADaMIG v1.3;Subject-Level Analysis Dataset;Treatment Timing;TRxxEDT;Date of Last Exposure in Period xx;Num;;;;;Cond;Date of last exposure to treatment in period xx. TRxxEDT and/or TRxxEDTM are only required in trial designs where multiple treatment periods are defined (i.e., required when there is a TRTxxP other than TRT01P).
ADaMIG v1.3;Subject-Level Analysis Dataset;Treatment Timing;TRxxETM;Time of Last Exposure in Period xx;Num;;;;;Cond;Ending time of exposure to treatment in period xx. TRxxETM and/or TRxxEDTM are only required in trial designs where ending time is important to the analysis and multiple treatment periods are defined (i.e., required when there is a TRTxxP other than TRT01P).
ADaMIG v1.3;Subject-Level Analysis Dataset;Treatment Timing;TRxxEDTM;Datetime of Last Exposure in Period xx;Num;;;;;Cond;Datetime of last exposure to treatment in period xx. TRxxEDTM is only required in trial designs where multiple treatment periods are defined (i.e., required when there is a TRTxxP other than TRT01P).
ADaMIG v1.3;Subject-Level Analysis Dataset;Treatment Timing;TRxxEDTF;Date Last Exposure Period xx Imput. Flag;Char;C81223;DATEFL;;;Cond;The level of imputation of date of last exposure to treatment in period xx. If TRxxEDT (or the date part of TRxxEDTM) was imputed, TRxxEDTF must be populated and is required. See Section 3.1.3, Date and Time Imputation Flag Variables.
ADaMIG v1.3;Subject-Level Analysis Dataset;Treatment Timing;TRxxETMF;Time Last Exposure Period xx Imput. Flag;Char;C81226;TIMEFL;;;Cond;The level of imputation of time of last exposure to treatment in period xx. If TRxxETM (or the time part of TRxxEDTM) was imputed, TRxxETMF must be populated and is required. See Section 3.1.3, Date and Time Imputation Flag Variables.
ADaMIG v1.3;Subject-Level Analysis Dataset;Period, Subperiod, and Phase Timing;APxxSDT;Period xx Start Date;Num;;;;;Perm;The starting date of period xx.
ADaMIG v1.3;Subject-Level Analysis Dataset;Period, Subperiod, and Phase Timing;APxxSTM;Period xx Start Time;Num;;;;;Perm;The starting time of period xx.
ADaMIG v1.3;Subject-Level Analysis Dataset;Period, Subperiod, and Phase Timing;APxxSDTM;Period xx Start Datetime;Num;;;;;Perm;The starting datetime of period xx.
ADaMIG v1.3;Subject-Level Analysis Dataset;Period, Subperiod, and Phase Timing;APxxSDTF;Period xx Start Date Imput. Flag;Char;C81223;DATEFL;;;Cond;The level of imputation of period xx start date. See Section 3.1.3, Date and Time Imputation Flag Variables.
ADaMIG v1.3;Subject-Level Analysis Dataset;Period, Subperiod, and Phase Timing;APxxSTMF;Period xx Start Time Imput. Flag;Char;C81226;TIMEFL;;;Cond;The level of imputation of period xx start time. See Section 3.1.3, Date and Time Imputation Flag Variables.
ADaMIG v1.3;Subject-Level Analysis Dataset;Period, Subperiod, and Phase Timing;APxxEDT;Period xx End Date;Num;;;;;Perm;The ending date of period xx.
ADaMIG v1.3;Subject-Level Analysis Dataset;Period, Subperiod, and Phase Timing;APxxETM;Period xx End Time;Num;;;;;Perm;The ending time of period xx.
ADaMIG v1.3;Subject-Level Analysis Dataset;Period, Subperiod, and Phase Timing;APxxEDTM;Period xx End Datetime;Num;;;;;Perm;The ending datetime of period xx.
ADaMIG v1.3;Subject-Level Analysis Dataset;Period, Subperiod, and Phase Timing;APxxEDTF;Period xx End Date Imput. Flag;Char;C81223;DATEFL;;;Cond;The level of imputation of period xx end date. See Section 3.1.3, Date and Time Imputation Flag Variables.
ADaMIG v1.3;Subject-Level Analysis Dataset;Period, Subperiod, and Phase Timing;APxxETMF;Period xx End Time Imput. Flag;Char;C81226;TIMEFL;;;Cond;The level of imputation of period xx end time. See Section 3.1.3, Date and Time Imputation Flag Variables.
ADaMIG v1.3;Subject-Level Analysis Dataset;Period, Subperiod, and Phase Timing;PxxSw;Description of Period xx Subperiod w;Char;;;;;Perm;Description of analysis subperiod w within period xx.
ADaMIG v1.3;Subject-Level Analysis Dataset;Period, Subperiod, and Phase Timing;PxxSwSDT;Period xx Subperiod w Start Date;Num;;;;;Perm;The starting date of subperiod w within period xx.
ADaMIG v1.3;Subject-Level Analysis Dataset;Period, Subperiod, and Phase Timing;PxxSwSTM;Period xx Subperiod w Start Time;Num;;;;;Perm;The starting time of subperiod w within period xx.
ADaMIG v1.3;Subject-Level Analysis Dataset;Period, Subperiod, and Phase Timing;PxxSwSDM;Period xx Subperiod w Start Datetime;Num;;;;;Perm;The starting datetime of subperiod w within period xx.
ADaMIG v1.3;Subject-Level Analysis Dataset;Period, Subperiod, and Phase Timing;PxxSwSDF;Period xx Subper w Start Date Imput Flag;Char;C81223;DATEFL;;;Cond;The level of imputation of the start date for subperiod w within period xx. See Section 3.1.3, Date and Time Imputation Flag Variables.
ADaMIG v1.3;Subject-Level Analysis Dataset;Period, Subperiod, and Phase Timing;PxxSwSTF;Period xx Subper w Start Time Imput Flag;Char;C81226;TIMEFL;;;Cond;The level of imputation of the start time for subperiod w within period xx. See Section 3.1.3, Date and Time Imputation Flag Variables.
ADaMIG v1.3;Subject-Level Analysis Dataset;Period, Subperiod, and Phase Timing;PxxSwEDT;Period xx Subperiod w End Date;Num;;;;;Perm;The ending date of subperiod w within period xx.
ADaMIG v1.3;Subject-Level Analysis Dataset;Period, Subperiod, and Phase Timing;PxxSwETM;Period xx Subperiod w End Time;Num;;;;;Perm;The ending time of subperiod w within period xx.
ADaMIG v1.3;Subject-Level Analysis Dataset;Period, Subperiod, and Phase Timing;PxxSwEDM;Period xx Subperiod w End Datetime;Num;;;;;Perm;The ending datetime of subperiod w within period xx.
ADaMIG v1.3;Subject-Level Analysis Dataset;Period, Subperiod, and Phase Timing;PxxSwEDF;Period xx Subper w End Date Imput Flag;Char;C81223;DATEFL;;;Cond;The level of imputation of the end date for subperiod w within period xx. See Section 3.1.3, Date and Time Imputation Flag Variables.
ADaMIG v1.3;Subject-Level Analysis Dataset;Period, Subperiod, and Phase Timing;PxxSwETF;Period xx Subper w End Time Imput Flag;Char;C81226;TIMEFL;;;Cond;The level of imputation of the end time for subperiod w within period xx. See Section 3.1.3, Date and Time Imputation Flag Variables.
ADaMIG v1.3;Subject-Level Analysis Dataset;Period, Subperiod, and Phase Timing;APHASEw;Description of Phase w;Char;;;;;Perm;Description of analysis phase w. Analysis phase is independent of TRTxxP within ADSL, and may be populated for spans of time where a subject is not on treatment.
ADaMIG v1.3;Subject-Level Analysis Dataset;Period, Subperiod, and Phase Timing;PHwSDT;Phase w Start Date;Num;;;;;Perm;The starting date of phase w.
ADaMIG v1.3;Subject-Level Analysis Dataset;Period, Subperiod, and Phase Timing;PHwSTM;Phase w Start Time;Num;;;;;Perm;The starting time of phase w.
ADaMIG v1.3;Subject-Level Analysis Dataset;Period, Subperiod, and Phase Timing;PHwSDTM;Phase w Start Datetime;Num;;;;;Perm;The starting datetime of phase w.
ADaMIG v1.3;Subject-Level Analysis Dataset;Period, Subperiod, and Phase Timing;PHwSDTF;Phase w Start Date Imputation Flag;Char;C81223;DATEFL;;;Cond;The level of imputation of the start date for phase w. See Section 3.1.3, Date and Time Imputation Flag Variables.
ADaMIG v1.3;Subject-Level Analysis Dataset;Period, Subperiod, and Phase Timing;PHwSTMF;Phase w Start Time Imputation Flag;Char;C81226;TIMEFL;;;Cond;The level of imputation of the start time for phase w. See Section 3.1.3, Date and Time Imputation Flag Variables.
ADaMIG v1.3;Subject-Level Analysis Dataset;Period, Subperiod, and Phase Timing;PHwEDT;Phase w End Date;Num;;;;;Perm;The ending date of phase w.
ADaMIG v1.3;Subject-Level Analysis Dataset;Period, Subperiod, and Phase Timing;PHwETM;Phase w End Time;Num;;;;;Perm;The ending time of phase w.
ADaMIG v1.3;Subject-Level Analysis Dataset;Period, Subperiod, and Phase Timing;PHwEDTM;Phase w End Datetime;Num;;;;;Perm;The ending datetime of phase w.
ADaMIG v1.3;Subject-Level Analysis Dataset;Period, Subperiod, and Phase Timing;PHwEDTF;Phase w End Date Imputation Flag;Char;C81223;DATEFL;;;Cond;The level of imputation of the end date for phase w. See Section 3.1.3, Date and Time Imputation Flag Variables.
ADaMIG v1.3;Subject-Level Analysis Dataset;Period, Subperiod, and Phase Timing;PHwETMF;Phase w End Time Imputation Flag;Char;C81226;TIMEFL;;;Cond;The level of imputation of the end time for phase w. See Section 3.1.3, Date and Time Imputation Flag Variables.
ADaMIG v1.3;Subject-Level Analysis Dataset;Trial Experience;EOSSTT;End of Study Status;Char;C124296;SBJTSTAT;;;Perm;The subject's status as of the end of study or data cutoff. Examples: COMPLETED, DISCONTINUED, ONGOING.
ADaMIG v1.3;Subject-Level Analysis Dataset;Trial Experience;EOSDT;End of Study Date;Num;;;;;Perm;Date subject ended the study - either date of completion or date of discontinuation or data cutoff date for interim analyses.
ADaMIG v1.3;Subject-Level Analysis Dataset;Trial Experience;DCSREAS;Reason for Discontinuation from Study;Char;;;;;Perm;Reason for subject's discontinuation from study. The source would most likely be the SDTM DS dataset. Null for subjects who completed the study.
ADaMIG v1.3;Subject-Level Analysis Dataset;Trial Experience;DCSREASP;Reason Spec for Discont from Study;Char;;;;;Perm;"Additional detail regarding subject's discontinuation from study (e.g., description of ""other"")."
ADaMIG v1.3;Subject-Level Analysis Dataset;Trial Experience;EOTSTT;End of Treatment Status;Char;C124296;SBJTSTAT;;;Perm;The subject's status as of the end of treatment or data cutoff. Examples: COMPLETED, DISCONTINUED, ONGOING.
ADaMIG v1.3;Subject-Level Analysis Dataset;Trial Experience;DCTREAS;Reason for Discontinuation of Treatment;Char;;;;;Perm;If a subject discontinued treatment in the study, then this variable indicates the reason for discontinuation. This is for discontinuation of treatment in the overall study and not to be used for discontinuation reason within individual treatment periods.
ADaMIG v1.3;Subject-Level Analysis Dataset;Trial Experience;DCTREASP;Reason Specify for Discont of Treatment;Char;;;;;Perm;"Additional detail regarding subject's discontinuation from treatment (e.g., description of ""other"")."
ADaMIG v1.3;Subject-Level Analysis Dataset;Trial Experience;EOTxxSTT;End of Treatment Status in Period xx;Char;C124296;SBJTSTAT;;;Perm;The subject's treatment status as of the end of period xx, or data cutoff if within period xx. Examples: COMPLETED, DISCONTINUED, ONGOING.
ADaMIG v1.3;Subject-Level Analysis Dataset;Trial Experience;DCTxxRS;Reason for Discont of Treat in Period xx;Char;;;;;Perm;Reason for discontinuing treatment in period xx.
ADaMIG v1.3;Subject-Level Analysis Dataset;Trial Experience;DCTxxRSP;Reason Spec for Disc of Trt in Period xx;Char;;;;;Perm;"Additional detail regarding subject's discontinuation of treatment in period xx (e.g., description of ""other"")."
ADaMIG v1.3;Subject-Level Analysis Dataset;Trial Experience;EOPxxSTT;End of Period xx Status;Char;C124296;SBJTSTAT;;;Perm;The subject's status as of the end of period xx, or data cutoff if within period xx. Examples: COMPLETED, DISCONTINUED, ONGOING.
ADaMIG v1.3;Subject-Level Analysis Dataset;Trial Experience;DCPxxRS;Reason for Discont from Period xx;Char;;;;;Perm;Reason for discontinuing analysis period xx.
ADaMIG v1.3;Subject-Level Analysis Dataset;Trial Experience;DCPxxRSP;Reason Spec for Discont from Period xx;Char;;;;;Perm;"Additional detail regarding subject's discontinuation from period xx (e.g., description of ""other"")."
ADaMIG v1.3;Subject-Level Analysis Dataset;Trial Experience;RFICDT;Date of Informed Consent;Num;;;;;Perm;Date subject gave informed consent. Generally equivalent to DM.RFICDTC.
ADaMIG v1.3;Subject-Level Analysis Dataset;Trial Experience;ENRLDT;Date of Enrollment;Num;;;;;Perm;Date of subject's enrollment into trial.
ADaMIG v1.3;Subject-Level Analysis Dataset;Trial Experience;RANDDT;Date of Randomization;Num;;;;;Cond;Required in randomized trials.
ADaMIG v1.3;Subject-Level Analysis Dataset;Trial Experience;RFICyDT;Date of Informed Consent y;Num;;;;;Perm;"This variable may be used in the case where there are multiple consent dates within a study. This date does not need to repeat the date in RFICDT. ""y"" can start with 1 but it is not required to start with 1."
ADaMIG v1.3;Subject-Level Analysis Dataset;Trial Experience;ENRLyDT;Date of Enrollment y;Num;;;;;Perm;"This variable may be used in the case where there are multiple enrollment dates within a study. This date does not need to repeat the date in ENRLDT. ""y"" can start with 1 but it is not required to start with 1."
ADaMIG v1.3;Subject-Level Analysis Dataset;Trial Experience;RANDyDT;Date of Randomization y;Num;;;;;Perm;"This variable may be used in the case where there are multiple randomization dates within a study. This date does not need to repeat the date in RANDDT. ""y"" can start with 1 but it is not required to start with 1."
ADaMIG v1.3;Subject-Level Analysis Dataset;Trial Experience;LSTALVDT;Date Last Known Alive;Num;;;;;Perm;If this variable is included in ADSL, the best practice is to populate it for everyone. If the derivation for subjects who died differs from the derivation for subjects who are not known to have died, the differences should be noted in metadata.
ADaMIG v1.3;Subject-Level Analysis Dataset;Trial Experience;TRCMP;Treatment Compliance (%);Num;;;;;Perm;Overall percent compliance with treatment in the trial. TRCMP may be useful for inclusion in ADSL for reasons such as defining subgroups and/or populations.
ADaMIG v1.3;Subject-Level Analysis Dataset;Trial Experience;TRCMPGy;Treatment Compliance (%) Group y;Char;;;;;Perm;"Grouping ""y"" of TRCMP, treatment compliance percentage."
ADaMIG v1.3;Subject-Level Analysis Dataset;Trial Experience;TRCMPGyN;Treatment Compliance (%) Group y (N);Num;;;;;Perm;"Numeric representation of treatment compliance (%) grouping ""y"". There must be a one-to-one relationship between TRCMPGyN and TRCMPGy within a study. \n TRCMPGyN cannot be present unless TRCMPGy is also present. When TRCMPGy and TRCMPGyN are present, then on a given record, either both must be populated or both must be null."
ADaMIG v1.3;Subject-Level Analysis Dataset;Trial Experience;TRxxDURD;Treatment Duration in Period xx (Days);Num;;;;;Perm;Treatment duration for period xx as measured in days. More than one of TRxxDURD, TRxxDURM, and TRxxDURY can be populated, but each represents the entire duration in its respective units.
ADaMIG v1.3;Subject-Level Analysis Dataset;Trial Experience;TRxxDURM;Treatment Duration in Period xx (Months);Num;;;;;Perm;Treatment duration for period xx, as measure in months. More than one of TRxxDURD, TRxxDURM, and TRxxDURY can be populated, but each represents the entire duration in its respective units.
ADaMIG v1.3;Subject-Level Analysis Dataset;Trial Experience;TRxxDURY;Treatment Duration in Period xx (Years);Num;;;;;Perm;Treatment duration for period xx, as measured in years. More than one of TRxxDURD, TRxxDURM, and TRxxDURY can be populated, but each represents the entire duration in its respective units.
ADaMIG v1.3;Subject-Level Analysis Dataset;Trial Experience;TRTDURD;Total Treatment Duration (Days);Num;;;;;Perm;Total treatment duration, as measured in days. More than one of TRTDURD, TRTDURM, and TRTDURY can be populated, but each represents the entire duration in its respective units.
ADaMIG v1.3;Subject-Level Analysis Dataset;Trial Experience;TRTDURM;Total Treatment Duration (Months);Num;;;;;Perm;Total treatment duration, as measured in months. More than one of TRTDURD, TRTDURM, and TRTDURY can be populated, but each represents the entire duration in its respective units.
ADaMIG v1.3;Subject-Level Analysis Dataset;Trial Experience;TRTDURY;Total Treatment Duration (Years);Num;;;;;Perm;Total treatment duration, as measured in years. More than one of TRTDURD, TRTDURM, and TRTDURY can be populated, but each represents the entire duration in its respective units.
ADaMIG v1.3;Subject-Level Analysis Dataset;Trial Experience;DTHDT;Date of Death;Num;;;;;Perm;Date of subject's death. Derived from DM.DTHDTC.
ADaMIG v1.3;Subject-Level Analysis Dataset;Trial Experience;DTHDTF;Date of Death Imputation Flag;Char;C81223;DATEFL;;;Cond;Imputation flag for date of subject's death. If DTHDT was imputed, DTHDTF must be populated and is required. See Section 3.1.3, Date and Time Imputation Flag Variables.
ADaMIG v1.3;Subject-Level Analysis Dataset;Trial Experience;DTHCAUS;Cause of Death;Char;;;;;Perm;Cause of Death.
ADaMIG v1.3;Subject-Level Analysis Dataset;Trial Experience;DTHCAUSN;Cause of Death (N);Num;;;;;Perm;Numeric representation of cause of death. There must be a one-to-one relationship between DTHCAUSN and DTHCAUS within a study. \n DTHCAUSN cannot be present unless DTHCAUS is also present. When DTHCAUS and DTHCAUSN are present, then on a given record, either both must be populated or both must be null.
ADaMIG v1.3;Subject-Level Analysis Dataset;Trial Experience;DTHCGRy;Cause of Death Group y;Char;;;;;Perm;"Grouping ""y"" of DTHCAUS, the subject's cause of death."
ADaMIG v1.3;Subject-Level Analysis Dataset;Trial Experience;DTHCGRyN;Cause of Death Group y (N);Num;;;;;Perm;"Numeric representation of grouping ""y"" of the subject's cause of death. There must be a one-to-one relationship between DTHCGRyN and DTHCGRy within a study. \n DTHCGyN cannot be present unless DTHCGy is also present. When DTHCGy and DTHCGyN are present, then on a given record, either both must be populated or both must be null."
ADaMIG v1.3;Subject-Level Analysis Dataset;Stratification;STRATAR;Strata Used for Randomization;Char;;;;;Perm;"STRATAR contains the combination of values of the individual stratification factors used for randomization. The exact format should be determined by the sponsor. \n This variable is intended for studies that use stratified randomization. \n For example, "">=50, Treatment experienced, N"""
ADaMIG v1.3;Subject-Level Analysis Dataset;Stratification;STRATARN;Strata Used for Randomization (N);Num;;;;;Perm;"Numeric representation of STRATAR. For example, STRATARN=3 when STRATAR="">=50, Treatment experienced, N"". There must be a one-to-one relationship between STRATARN and STRATAR within a study. \n STRATARN cannot be present unless STRATAR is also present. When STRATAR and STRATARN are present, then on a given record, either both must be populated or both must be null."
ADaMIG v1.3;Subject-Level Analysis Dataset;Stratification;STRATwD;Description of Stratification Factor w;Char;;;;;Perm;"STRATwD is a full text description of the stratification factor ""w"". This text description will remain constant for all subjects. These descriptive variables are included to quickly and clearly communicate critical study design information as well as to facilitate integration. \n For example, STRAT3D=""Hypertension"""
ADaMIG v1.3;Subject-Level Analysis Dataset;Stratification;STRATwR;Strat Factor w Value Used for Rand;Char;;;;;Perm;"STRATwR is the subject-level value of the ""w'th"" stratification factor used for randomization. \n For example, STRAT3R=""N"""
ADaMIG v1.3;Subject-Level Analysis Dataset;Stratification;STRATwRN;Strat Factor w Value Used for Rand (N);Num;;;;;Perm;"Numeric representation of STRATwR. For example, STRAT3RN=0 when STRAT3R=""N"". There must be a one-to-one relationship between STRATwRN and STRATwR within a study. \n STRATwRN cannot be present unless STRATwR is also present. When STRATwR and STRATwRN are present, then on a given record, either both must be populated or both must be null."
ADaMIG v1.3;Subject-Level Analysis Dataset;Stratification;STRATAV;Strata from Verification Source;Char;;;;;Perm;"STRATAV contains the entire string value represents the combination of values of the individual stratification factors that should have been used and represents the ""as verified"" value. The STRATAV variables are based on the source documentation and are determined after randomization. If the values used for the randomization of a given subject were all correct, then STRATAV will equal STRATAR. Otherwise, one or more components of the text string for STRATAR and STRATAV will be different. \n The exact format should be determined by the sponsor. \n For example, "">=50, Treatment experienced, Y"""
ADaMIG v1.3;Subject-Level Analysis Dataset;Stratification;STRATAVN;Strata from Verification Source (N);Num;;;;;Perm;"Numeric representation of STRATAV. For example, STRATAVN=4 when STRATVR="">=50, Treatment experienced, Y"". There must be a one-to-one relationship between STRATAVN and STRATAV within a study. \n STRATAVN cannot be present unless STRATAV is also present. When STRATAV and STRATAVN are present, then on a given record, either both must be populated or both must be null."
ADaMIG v1.3;Subject-Level Analysis Dataset;Stratification;STRATwV;Strat Factor w Value from Verif Source;Char;;;;;Perm;"STRATwV is the ""as verified"" subject-level value of the ""w'th"" stratification factor. If the value based on randomization was correct, then STRATwV will equal STRATwR. \n For example, STRAT3V=""Y"""
ADaMIG v1.3;Subject-Level Analysis Dataset;Stratification;STRATwVN;Strat Fact w Val from Verif Source (N);Num;;;;;Perm;"Numeric representation of STRATwV. For example, STRAT3VN=1 when STRAT3V=""Y"". There must be a one-to-one relationship between STRATwVN and STRATwV within a study. \n STRATwVN cannot be present unless STRATwV is also present. When STRATwV and STRATwVN are present, then on a given record, either both must be populated or both must be null. \n"
ADaMIG v1.3;Basic Data Structure;Record-Level Treatment;TRTP;Planned Treatment;Char;;;;;Cond;TRTP is a record-level identifier that represents the planned treatment attributed to a record for analysis purposes. TRTP indicates how treatment varies by record within a subject and enables analysis of crossover and other designs. Though there is no requirement that TRTP will correspond to the TRTxxP as defined by the record's value of APERIOD, if populated, TRTP must match at least one value of the character planned treatment variables in ADSL (e.g., TRTxxP, TRTSEQP, TRxxPGy). \n As noted previously, at least one treatment variable is required even in non-randomized trials. This requirement is satisfied by any subject-level or record-level treatment variables (e.g., TRTxxP, TRTP, TRTA). Even if not used for analysis, any ADSL treatment variable may be included in the BDS dataset.
ADaMIG v1.3;Basic Data Structure;Record-Level Treatment;TRTPN;Planned Treatment (N);Num;;;;;Perm;Numeric representation of TRTP. There must be a one-to-one relationship between TRTPN and TRTP within a study. \n TRTPN cannot be present unless TRTP is also present. When TRTP and TRTPN are present, then on a given record, either both must be populated or both must be null.
ADaMIG v1.3;Basic Data Structure;Record-Level Treatment;TRTA;Actual Treatment;Char;;;;;Cond;TRTA is a record-level identifier that represents the actual treatment attributed to a record for analysis purposes. TRTA indicates how treatment varies by record within a subject and enables analysis of crossover and other multi-period designs. Though there is no requirement that TRTA will correspond to the TRTxxA as defined by the record's value of APERIOD, TRTA must match at least one value of the character actual treatment variables in ADSL (e.g., TRTxxA, TRTSEQA, TRxxAGy). \n As noted previously, at least one treatment variable is required. This requirement is satisfied by any subject-level or record-level treatment variables (e.g., TRTxxP, TRTP, TRTA). Even if not used for analysis, any ADSL treatment variable may be included in the BDS dataset.
ADaMIG v1.3;Basic Data Structure;Record-Level Treatment;TRTAN;Actual Treatment (N);Num;;;;;Perm;Numeric representation of TRTA. There must be a one-to-one relationship between TRTAN and TRTA within a study. \n TRTAN cannot be present unless TRTA is also present. When TRTA and TRTAN are present, then on a given record, either both must be populated or both must be null.
ADaMIG v1.3;Basic Data Structure;Record-Level Treatment;TRTPGy;Planned Pooled Treatment y;Char;;;;;Perm;"TRTPGy is the planned pooled treatment y attributed to a record for analysis purposes. ""y"" represents an integer [1-99, not zero-padded] corresponding to a particular pooling scheme. Useful when planned treatments (TRTP) are pooled together for analysis, for example when all doses of Drug A (TRTPG1=All doses of Drug A) are compared to all doses of Drug B (TRTPG1=All doses of Drug B). Each value of TRTP is pooled within at most one value of TRTPGy."
ADaMIG v1.3;Basic Data Structure;Record-Level Treatment;TRTPGyN;Planned Pooled Treatment y (N);Num;;;;;Perm;Numeric representation of TRTPGy. There must be a one-to-one relationship between TRTPGyN and TRTPGy within a study. \n TRTPGyN cannot be present unless TRTPGy is also present. When TRTPGy and TRTPGyN are present, then on a given record, either both must be populated or both must be null.
ADaMIG v1.3;Basic Data Structure;Record-Level Treatment;TRTAGy;Actual Pooled Treatment y;Char;;;;;Cond;"TRTAGy is the actual pooled treatment y attributed to a record for analysis purposes. ""y"" represents an integer [1-99, not zero-padded] corresponding to a particular pooling scheme. Required when TRTPGy is present and TRTA is present."
ADaMIG v1.3;Basic Data Structure;Record-Level Treatment;TRTAGyN;Actual Pooled Treatment y (N);Num;;;;;Perm;Numeric representation of TRTAGy. There must be a one-to-one relationship between TRTAGyN and TRTAGy within a study. \n TRTAGyN cannot be present unless TRTAGy is also present. When TRTAGy and TRTAGyN are present, then on a given record, either both must be populated or both must be null.
ADaMIG v1.3;Basic Data Structure;Record-Level Dose;DOSEP;Planned Treatment Dose;Num;;;;;Perm;DOSEP represents the planned treatment dosage associated with the record.
ADaMIG v1.3;Basic Data Structure;Record-Level Dose;DOSCUMP;Cumulative Planned Treatment Dose;Num;;;;;Perm;Cumulative planned dosage of treatment for the subject at the point in time of the record (e.g., ADT).
ADaMIG v1.3;Basic Data Structure;Record-Level Dose;DOSEA;Actual Treatment Dose;Num;;;;;Perm;DOSEA represents the actual treatment dosage associated with the record.
ADaMIG v1.3;Basic Data Structure;Record-Level Dose;DOSCUMA;Cumulative Actual Treatment Dose;Num;;;;;Perm;Cumulative actual dosage of treatment for the subject at the point in time of the record (e.g., ADT).
ADaMIG v1.3;Basic Data Structure;Record-Level Dose;DOSEU;Treatment Dose Units;Char;;;;;Perm;"The units for DOSEP, DOSCUMP, DOSEA, and DOSCUMA. It is permissible to use suffixes such as ""P"" and ""A"" if needed, with labels modified accordingly."
ADaMIG v1.3;Basic Data Structure;Timing;ADT;Analysis Date;Num;;;;;Cond;The date associated with AVAL and/or AVALC in numeric format.
ADaMIG v1.3;Basic Data Structure;Timing;ATM;Analysis Time;Num;;;;;Cond;The time associated with AVAL and/or AVALC in numeric format.
ADaMIG v1.3;Basic Data Structure;Timing;ADTM;Analysis Datetime;Num;;;;;Cond;The datetime associated with AVAL and/or AVALC in numeric format.
ADaMIG v1.3;Basic Data Structure;Timing;ADY;Analysis Relative Day;Num;;;;;Cond;The relative day of AVAL and/or AVALC. The number of days from an anchor date (not necessarily DM.RFSTDTC) to ADT. See Section 3.1.2, Timing Variable Conventions. If a dataset contains more than one record per parameter per subject, then an SDTM or ADaM relative timing variable must be present (ADY would meet this requirement).
ADaMIG v1.3;Basic Data Structure;Timing;ADTF;Analysis Date Imputation Flag;Char;C81223;DATEFL;;;Cond;The level of imputation of analysis date. If ADT (or the date part of ADTM) was imputed, ADTF must be populated and is required. See Section 3.1.3, Date and Time Imputation Flag Variables.
ADaMIG v1.3;Basic Data Structure;Timing;ATMF;Analysis Time Imputation Flag;Char;C81226;TIMEFL;;;Cond;The level of imputation of analysis time. If ATM (or the time part of ADTM) was imputed, ATMF must be populated and is required. See Section 3.1.3, Date and Time Imputation Flag Variables.
ADaMIG v1.3;Basic Data Structure;Timing;ASTDT;Analysis Start Date;Num;;;;;Cond;The start date associated with AVAL and/or AVALC. ASTDT and AENDT may be useful for traceability when AVAL summarizes data collected over an interval of time, or when AVAL is a duration.
ADaMIG v1.3;Basic Data Structure;Timing;ASTTM;Analysis Start Time;Num;;;;;Cond;The start time associated with AVAL and/or AVALC. ASTTM and AENTM may be useful for traceability when AVAL summarizes data collected over an interval of time, or when AVAL is a duration.
ADaMIG v1.3;Basic Data Structure;Timing;ASTDTM;Analysis Start Datetime;Num;;;;;Cond;The start datetime associated with AVAL and/or AVALC. ASTDTM and AENDTM may be useful for traceability when AVAL summarizes data collected over an interval of time, or when AVAL is a duration.
ADaMIG v1.3;Basic Data Structure;Timing;ASTDY;Analysis Start Relative Day;Num;;;;;Cond;The number of days from an anchor date (not necessarily DM.RFSTDTC) to ASTDT. See Section 3.1.2, Timing Variable Conventions. If a dataset contains more than one record per parameter per subject then, an SDTM or ADaM relative timing variable must be present (ASTDY would meet this requirement).
ADaMIG v1.3;Basic Data Structure;Timing;ASTDTF;Analysis Start Date Imputation Flag;Char;C81223;DATEFL;;;Cond;The level of imputation of analysis start date. If ASTDT (or the date part of ASTDTM) was imputed, ASTDTF must be populated and is required. See Section 3.1.3, Date and Time Imputation Flag Variables.
ADaMIG v1.3;Basic Data Structure;Timing;ASTTMF;Analysis Start Time Imputation Flag;Char;C81226;TIMEFL;;;Cond;The level of imputation of analysis start time. If ASTTM (or the time part of ASTDTM) was imputed, ASTTMF must be populated and is required. See Section 3.1.3, Date and Time Imputation Flag Variables.
ADaMIG v1.3;Basic Data Structure;Timing;AENDT;Analysis End Date;Num;;;;;Cond;The end date associated with AVAL and/or AVALC. See also ASTDT.
ADaMIG v1.3;Basic Data Structure;Timing;AENTM;Analysis End Time;Num;;;;;Cond;The end time associated with AVAL and/or AVALC. See also ASTTM.
ADaMIG v1.3;Basic Data Structure;Timing;AENDTM;Analysis End Datetime;Num;;;;;Cond;The end datetime associated with AVAL and/or AVALC. See also ASTDTM.
ADaMIG v1.3;Basic Data Structure;Timing;AENDY;Analysis End Relative Day;Num;;;;;Cond;The number of days from an anchor date (not necessarily DM.RFSTDTC) to AENDT. See Section 3.1.2, Timing Variable Conventions. If a dataset contains more than one record per parameter per subject, then an SDTM or ADaM relative timing variable must be present (AENDY would meet this requirement).
ADaMIG v1.3;Basic Data Structure;Timing;AENDTF;Analysis End Date Imputation Flag;Char;C81223;DATEFL;;;Cond;The level of imputation of analysis end date. If AENDT (or the date part of AENDTM) was imputed, AENDTF must be populated and is required. See Section 3.1.3, Date and Time Imputation Flag Variables.
ADaMIG v1.3;Basic Data Structure;Timing;AENTMF;Analysis End Time Imputation Flag;Char;C81226;TIMEFL;;;Cond;The level of imputation of analysis end time. If AENTM (or the time part of AENDTM) was imputed, AENTMF must be populated and is required. See Section 3.1.3, Date and Time Imputation Flag Variables.
ADaMIG v1.3;Basic Data Structure;Timing;AVISIT;Analysis Visit;Char;;;;;Cond;"The analysis visit description; required if an analysis is done by nominal, assigned or analysis visit. AVISIT may contain the visit names as observed (i.e., from SDTM VISIT), derived visit names, time window names, conceptual descriptions (such as Average, Endpoint, etc.), or a combination of any of these. AVISIT is a derived field and does not have to map to VISIT from the SDTM. AVISIT represents the analysis visit of the record, but it does not mean that the record was analyzed. There are often multiple records for the same subject and parameter that have the same value of AVISIT. ANLzzFL and other variables may be needed to identify the records selected for any given analysis. See Section 3.3.8, Indicator Variables for BDS Datasets, for information about flag variables. AVISIT should be unique for a given analysis visit window. In the event that a record does not fall within any predefined analysis timepoint window, AVISIT can be populated in any way that the producer chooses to indicate this fact (e.g., blank or ""Not Windowed""). The way that AVISIT is calculated, including the variables used in its derivation, should be indicated in the variable metadata for AVISIT. The values and the rules for deriving AVISIT may be different for different parameters within the same dataset. Values of AVISIT are producer-defined, and are often directly usable in Clinical Study Report displays. If a dataset contains more than one record per parameter per subject, then an SDTM or ADaM relative timing variable must be present (AVISIT could meet this requirement)."
ADaMIG v1.3;Basic Data Structure;Timing;AVISITN;Analysis Visit (N);Num;;;;;Perm;Numeric representation of AVISIT. Since study visits are usually defined by certain timepoints, defining AVISITN so that it represents the timepoint associated with the visit can facilitate plotting and interpretation of the values. Alternatively, AVISITN may be a protocol visit number, a cycle number, an analysis visit number, or any other number logically related to AVISIT or useful for sorting that is needed for analysis. \n There must be a one-to-one relationship between AVISITN and AVISIT (i.e., AVISITN has the same value for each distinct AVISIT) within a parameter. A best practice is to extend the one-to-one relationship to within a study, but this is not an ADaM requirement. In the event that a record does not fall within any predefined analysis timepoint window, AVISITN can be populated in any way that the producer chooses to indicate this fact (e.g., may be null). Values of AVISITN are producer-defined. \n AVISITN cannot be present unless AVISIT is also present. On a given record, AVISITN cannot be populated if AVISIT is null. AVISITN can be null when AVISIT is populated, as long as the one-to-one relationship is maintained within a parameter on all rows on which both variables are populated.
ADaMIG v1.3;Basic Data Structure;Timing;ATPT;Analysis Timepoint;Char;;;;;Cond;"The analysis timepoint description; required if an analysis is done by nominal, assigned or analysis timepoint (instead of or in addition to by-visit). Timepoints are relative to ATPTREF. ATPT may contain the timepoint names as observed (i.e., from SDTM --TPT), derived timepoint names, time window names, conceptual descriptions (such as Average, Endpoint, etc.), or a combination of any of these. This variable is often used in conjunction with AVISIT. ATPT represents the analysis timepoint of the record. \n ATPT can be within an analysis visit (e.g., blood pressure assessments at 10 min, 20 min, and 30 min post-dose at AVISIT=Week 1) or can be unrelated to AVISIT (e.g., migraine symptoms 30 min, 60 min, and 120 min post-dose for attack 1). \n The way that ATPT is calculated, including the variables used in its derivation, should be indicated in the variable metadata for ATPT. The values and the rules for deriving ATPT may be different for different parameters within the same dataset. Values of ATPT are producer-defined, and are often directly usable in Clinical Study Report displays. \n If a dataset contains more than one record per parameter per subject, then an SDTM or ADaM relative timing variable must be present (ATPT could meet this requirement)."
ADaMIG v1.3;Basic Data Structure;Timing;ATPTN;Analysis Timepoint (N);Num;;;;;Perm;Numeric representation of ATPT. Defining ATPTN so that its values represent the planned timepoints (e.g., minutes or hours after dosing) is not required but can facilitate plotting and interpretation of the values. There must be a one-to-one relationship between ATPTN and ATPT within a parameter. (Best practice would dictate that the mapping would be one-to-one within a study, but that is not an ADaM requirement.) \n ATPTN cannot be present unless ATPT is also present. When ATPT and ATPTN are present, then on a given record, either both must be populated or both must be null.
ADaMIG v1.3;Basic Data Structure;Timing;ATPTREF;Analysis Timepoint Reference;Char;;;;;Perm;Description of the fixed reference point referred to by ATPT/ATPTN (e.g., time of dose).
ADaMIG v1.3;Basic Data Structure;Timing;APHASE;Phase;Char;;;;;Perm;APHASE is a categorization of timing within a study, for example a higher-level categorization of APERIOD or an analysis epoch. For example, APHASE could describe spans of time for SCREENING, ON TREATMENT, and FOLLOW-UP. APHASE may be used alone or in addition to APERIOD. APHASE is independent of TRTxxP within ADSL. APHASE may be populated for spans of time where a subject is not on treatment. The value of APHASE (if populated) must be one of the values found in the ADSL APHASEw variables.
ADaMIG v1.3;Basic Data Structure;Timing;APHASEN;Phase (N);Num;;;;;Perm;Numeric representation of APHASE. The value of APHASEN (if populated) must be one of the w values found in the ADSL APHASEw variable names. There must be a one-to-one relationship between APHASEN and APHASE within a study, which must be the same as the one-to-one mapping between w and APHASEw in ADSL. \n APHASEN cannot be present unless APHASE is also present. When APHASE and APHASEN are present, then on a given record, either both must be populated or both must be null.
ADaMIG v1.3;Basic Data Structure;Timing;APERIOD;Period;Num;;;;;Cond;APERIOD is a record-level timing variable that represents the analysis period within the study associated with the record for analysis purposes. The value of APERIOD (if populated) must be one of the xx values found in the ADSL TRTxxP variable names. APERIOD is required if ASPER is present. APERIOD must be populated on all records where ASPER is populated. \n
ADaMIG v1.3;Basic Data Structure;Timing;APERIODC;Period (C);Char;;;;;Perm;Text characterizing to which analysis period the record belongs. There must be a one-to-one relationship between APERIODC and APERIOD within a study. \n APERIODC cannot be present unless APERIOD is also present. When APERIOD and APERIODC are present, then on a given record, either both must be populated or both must be null.
ADaMIG v1.3;Basic Data Structure;Timing;ASPER;Subperiod within Period;Num;;;;;Perm;The numeric value characterizing a sublevel within APERIOD to which the record belongs. Within each APERIOD, the first ASPER is 1 (i.e., it resets to 1 when the APERIOD value changes). The value of ASPER (if populated) must be one of the w values found in the ADSL PxxSw variable names. \n
ADaMIG v1.3;Basic Data Structure;Timing;ASPERC;Subperiod within Period (C);Char;;;;;Perm;Text characterizing to which subperiod the record belongs. There must be a one-to-one relationship between ASPERC and ASPER within a value of APERIOD, which must be the same as the one-to-one mapping between PxxSw and w in ADSL, where xx is equal to the value of APERIOD. The value of ASPERC (if populated) must be one of the values found in the ADSL PxxSw variables. \n ASPERC cannot be present unless ASPER is also present. When ASPER and ASPERC are present, then on a given record, either both must be populated or both must be null.
ADaMIG v1.3;Basic Data Structure;Timing;ARELTM;Analysis Relative Time;Num;;;;;Perm;The time relative to an anchor time. The amount of time from an anchor time to ATM. When ARELTM is present, the anchor time variable and ARELTMU must also be included in the dataset, and the anchor time variable must be identified in the metadata for ARELTM.
ADaMIG v1.3;Basic Data Structure;Timing;ARELTMU;Analysis Relative Time Unit;Char;;;;;Perm;"The units of ARELTM. For example, ""HOURS"" or ""MINUTES."" ARELTMU is required if ARELTM is present."
ADaMIG v1.3;Basic Data Structure;Period, Subperiod, and Phase Start and End Timing;APERSDT;Period Start Date;Num;;;;;Perm;The starting date for the period defined by APERIOD.
ADaMIG v1.3;Basic Data Structure;Period, Subperiod, and Phase Start and End Timing;APERSTM;Period Start Time;Num;;;;;Perm;The starting time for the period defined by APERIOD.
ADaMIG v1.3;Basic Data Structure;Period, Subperiod, and Phase Start and End Timing;APERSDTM;Period Start Datetime;Num;;;;;Perm;The starting datetime for the period defined by APERIOD.
ADaMIG v1.3;Basic Data Structure;Period, Subperiod, and Phase Start and End Timing;APERSDTF;Period Start Date Imput. Flag;Char;C81223;DATEFL;;;Cond;The level of imputation of period start date. If APERSDT (or the date part of APERSDTM) was imputed, APERSDTF must be populated and is required. See Section 3.1.3, Date and Time Imputation Flag Variables.
ADaMIG v1.3;Basic Data Structure;Period, Subperiod, and Phase Start and End Timing;APERSTMF;Period Start Time Imput. Flag;Char;C81226;TIMEFL;;;Cond;The level of imputation of period start time. If APERSTM (or the time part of APERSDTM) was imputed, APERSTMF must be populated and is required. See Section 3.1.3, Date and Time Imputation Flag Variables.
ADaMIG v1.3;Basic Data Structure;Period, Subperiod, and Phase Start and End Timing;APEREDT;Period End Date;Num;;;;;Perm;The ending date for the period defined by APERIOD.
ADaMIG v1.3;Basic Data Structure;Period, Subperiod, and Phase Start and End Timing;APERETM;Period End Time;Num;;;;;Perm;The ending time for the period defined by APERIOD.
ADaMIG v1.3;Basic Data Structure;Period, Subperiod, and Phase Start and End Timing;APEREDTM;Period End Datetime;Num;;;;;Perm;The ending datetime for the period defined by APERIOD.
ADaMIG v1.3;Basic Data Structure;Period, Subperiod, and Phase Start and End Timing;APEREDTF;Period End Date Imput. Flag;Char;C81223;DATEFL;;;Cond;The level of imputation of period end date. If APEREDT (or the date part of APEREDTM) was imputed, APEREDTF must be populated and is required. See Section 3.1.3, Date and Time Imputation Flag Variables.
ADaMIG v1.3;Basic Data Structure;Period, Subperiod, and Phase Start and End Timing;APERETMF;Period End Time Imput. Flag;Char;C81226;TIMEFL;;;Cond;The level of imputation of period end time. If APERETM (or the time part of APEREDTM) was imputed, APERETMF must be populated and is required. See Section 3.1.3, Date and Time Imputation Flag Variables.
ADaMIG v1.3;Basic Data Structure;Period, Subperiod, and Phase Start and End Timing;ASPRSDT;Subperiod Start Date;Num;;;;;Perm;The starting date for the subperiod defined by ASPER.
ADaMIG v1.3;Basic Data Structure;Period, Subperiod, and Phase Start and End Timing;ASPRSTM;Subperiod Start Time;Num;;;;;Perm;The starting time for the subperiod defined by ASPER.
ADaMIG v1.3;Basic Data Structure;Period, Subperiod, and Phase Start and End Timing;ASPRSDTM;Subperiod Start Datetime;Num;;;;;Perm;The starting datetime for the subperiod defined by ASPER.
ADaMIG v1.3;Basic Data Structure;Period, Subperiod, and Phase Start and End Timing;ASPRSDTF;Subperiod Start Date Imput. Flag;Char;C81223;DATEFL;;;Cond;The level of imputation of subperiod start date. If ASPRSDT (or the date part of ASPRSDTM) was imputed, ASPRSDTF must be populated and is required. See Section 3.1.3, Date and Time Imputation Flag Variables.
ADaMIG v1.3;Basic Data Structure;Period, Subperiod, and Phase Start and End Timing;ASPRSTMF;Subperiod Start Time Imput. Flag;Char;C81226;TIMEFL;;;Cond;The level of imputation of subperiod start time. If ASPRSTM (or the time part of ASPRSDTM) was imputed, ASPRSTMF must be populated and is required. See Section 3.1.3, Date and Time Imputation Flag Variables.
ADaMIG v1.3;Basic Data Structure;Period, Subperiod, and Phase Start and End Timing;ASPREDT;Subperiod End Date;Num;;;;;Perm;The ending date for the subperiod defined by ASPER.
ADaMIG v1.3;Basic Data Structure;Period, Subperiod, and Phase Start and End Timing;ASPRETM;Subperiod End Time;Num;;;;;Perm;The ending time for the subperiod defined by ASPER.
ADaMIG v1.3;Basic Data Structure;Period, Subperiod, and Phase Start and End Timing;ASPREDTM;Subperiod End Datetime;Num;;;;;Perm;The ending datetime for the subperiod defined by ASPER.
ADaMIG v1.3;Basic Data Structure;Period, Subperiod, and Phase Start and End Timing;ASPREDTF;Subperiod End Date Imput. Flag;Char;C81223;DATEFL;;;Cond;The level of imputation of subperiod end date. If ASPREDT (or the date part of ASPREDTM) was imputed, ASPREDTF must be populated and is required. See Section 3.1.3, Date and Time Imputation Flag Variables.
ADaMIG v1.3;Basic Data Structure;Period, Subperiod, and Phase Start and End Timing;ASPRETMF;Subperiod End Time Imput. Flag;Char;C81226;TIMEFL;;;Cond;The level of imputation of subperiod end time. If ASPRETM (or the time part of ASPREDTM) was imputed, ASPRETMF must be populated and is required. See Section 3.1.3, Date and Time Imputation Flag Variables.
ADaMIG v1.3;Basic Data Structure;Period, Subperiod, and Phase Start and End Timing;PHSDT;Phase Start Date;Num;;;;;Perm;The starting date for the phase defined by APHASE.
ADaMIG v1.3;Basic Data Structure;Period, Subperiod, and Phase Start and End Timing;PHSTM;Phase Start Time;Num;;;;;Perm;The starting time for the phase defined by APHASE.
ADaMIG v1.3;Basic Data Structure;Period, Subperiod, and Phase Start and End Timing;PHSDTM;Phase Start Datetime;Num;;;;;Perm;The starting datetime for the phase defined by APHASE.
ADaMIG v1.3;Basic Data Structure;Period, Subperiod, and Phase Start and End Timing;PHSDTF;Phase Start Date Imput. Flag;Char;C81223;DATEFL;;;Cond;The level of imputation of phase start date. If PHSDT (or the date part of PHSDTM) was imputed, PHSDTF must be populated and is required. See Section 3.1.3, Date and Time Imputation Flag Variables.
ADaMIG v1.3;Basic Data Structure;Period, Subperiod, and Phase Start and End Timing;PHSTMF;Phase Start Time Imput. Flag;Char;C81226;TIMEFL;;;Cond;The level of imputation of phase start time. If PHSTM (or the time part of PHSDTM) was imputed, PHSTMF must be populated and is required. See Section 3.1.3, Date and Time Imputation Flag Variables.
ADaMIG v1.3;Basic Data Structure;Period, Subperiod, and Phase Start and End Timing;PHEDT;Phase End Date;Num;;;;;Perm;The ending date for the phase defined by APHASE.
ADaMIG v1.3;Basic Data Structure;Period, Subperiod, and Phase Start and End Timing;PHETM;Phase End Time;Num;;;;;Perm;The ending time for the phase defined by APHASE.
ADaMIG v1.3;Basic Data Structure;Period, Subperiod, and Phase Start and End Timing;PHEDTM;Phase End Datetime;Num;;;;;Perm;The ending datetime for the phase defined by APHASE.
ADaMIG v1.3;Basic Data Structure;Period, Subperiod, and Phase Start and End Timing;PHEDTF;Phase End Date Imput. Flag;Char;C81223;DATEFL;;;Cond;The level of imputation of phase end date. If PHEDT (or the date part of PHEDTM) was imputed, PHEDTF must be populated and is required. See Section 3.1.3, Date and Time Imputation Flag Variables.
ADaMIG v1.3;Basic Data Structure;Period, Subperiod, and Phase Start and End Timing;PHETMF;Phase End Time Imput. Flag;Char;C81226;TIMEFL;;;Cond;The level of imputation of phase end time. If PHETM (or the time part of PHEDTM) was imputed, PHETMF must be populated and is required. See Section 3.1.3, Date and Time Imputation Flag Variables.
ADaMIG v1.3;Basic Data Structure;Suffixes for User-Defined Timing;*DT;{Date};Num;;;;;Perm;Analysis date not directly characterizing AVAL and/or AVALC in numeric format.
ADaMIG v1.3;Basic Data Structure;Suffixes for User-Defined Timing;*TM;{Time};Num;;;;;Perm;Analysis time not directly characterizing AVAL and/or AVALC in numeric format.
ADaMIG v1.3;Basic Data Structure;Suffixes for User-Defined Timing;*DTM;{Datetime};Num;;;;;Perm;Analysis datetime not directly characterizing AVAL and/or AVALC in numeric format.
ADaMIG v1.3;Basic Data Structure;Suffixes for User-Defined Timing;*ADY;{Relative Day};Num;;;;;Perm;Analysis relative day not directly characterizing AVAL and/or AVALC.
ADaMIG v1.3;Basic Data Structure;Suffixes for User-Defined Timing;*DTF;{Date Imputation Flag};Char;C81223;DATEFL;;;Cond;The level of imputation of *DT. If *DT (or the date part of *DTM) was imputed, *DTF must be populated and is required. See Section 3.1.3, Date and Time Imputation Flag Variables.
ADaMIG v1.3;Basic Data Structure;Suffixes for User-Defined Timing;*TMF;{Time Imputation Flag};Char;C81226;TIMEFL;;;Cond;The level of imputation of *TM. If *TM (or the time part of *DTM) was imputed, *TMF must be populated and is required. See Section 3.1.3, Date and Time Imputation Flag Variables.
ADaMIG v1.3;Basic Data Structure;Suffixes for User-Defined Timing;*SDT;{Start Date};Num;;;;;Perm;Starting analysis date not directly characterizing AVAL and/or AVALC in numeric format.
ADaMIG v1.3;Basic Data Structure;Suffixes for User-Defined Timing;*STM;{Start Time};Num;;;;;Perm;Starting analysis time not directly characterizing AVAL and/or AVALC in numeric format.
ADaMIG v1.3;Basic Data Structure;Suffixes for User-Defined Timing;*SDTM;{Start Datetime};Num;;;;;Perm;Starting analysis datetime not directly characterizing AVAL and/or AVALC in numeric format.
ADaMIG v1.3;Basic Data Structure;Suffixes for User-Defined Timing;*SDY;{Relative Start Day};Num;;;;;Perm;Starting analysis relative day not directly characterizing AVAL and/or AVALC.
ADaMIG v1.3;Basic Data Structure;Suffixes for User-Defined Timing;*SDTF;{Start Date Imputation Flag};Char;C81223;DATEFL;;;Cond;The level of imputation of *SDT. If *SDT (or the date part of *SDTM) was imputed, *SDTF must be populated and is required. See Section 3.1.3, Date and Time Imputation Flag Variables.
ADaMIG v1.3;Basic Data Structure;Suffixes for User-Defined Timing;*STMF;{Start Time Imputation Flag};Char;C81226;TIMEFL;;;Cond;The level of imputation of *STM. If *STM (or the time part of *SDTM) was imputed, *STMF must be populated and is required. See Section 3.1.3, Date and Time Imputation Flag Variables.
ADaMIG v1.3;Basic Data Structure;Suffixes for User-Defined Timing;*EDT;{End Date};Num;;;;;Perm;Ending analysis date not directly characterizing AVAL and/or AVALC in numeric format.
ADaMIG v1.3;Basic Data Structure;Suffixes for User-Defined Timing;*ETM;{End Time};Num;;;;;Perm;Ending analysis time not directly characterizing AVAL and/or AVALC in numeric format.
ADaMIG v1.3;Basic Data Structure;Suffixes for User-Defined Timing;*EDTM;{End Datetime};Num;;;;;Perm;Ending analysis datetime not directly characterizing AVAL and/or AVALC in numeric format.
ADaMIG v1.3;Basic Data Structure;Suffixes for User-Defined Timing;*EDY;{Relative End Day};Num;;;;;Perm;Ending analysis relative day not directly characterizing AVAL and/or AVALC.
ADaMIG v1.3;Basic Data Structure;Suffixes for User-Defined Timing;*EDTF;{End Date Imputation Flag};Char;C81223;DATEFL;;;Cond;The level of imputation of *EDT. If *EDT (or the date part of *EDTM) was imputed, *EDTF must be populated and is required. See Section 3.1.3, Date and Time Imputation Flag Variables.
ADaMIG v1.3;Basic Data Structure;Suffixes for User-Defined Timing;*ETMF;{End Time Imputation Flag};Char;C81226;TIMEFL;;;Cond;The level of imputation of *ETM. If *ETM (or the time part of *EDTM) was imputed, *ETMF must be populated and is required. See Section 3.1.3, Date and Time Imputation Flag Variables.
ADaMIG v1.3;Basic Data Structure;Analysis Parameter;PARAM;Parameter;Char;;;;;Req;"The description of the analysis parameter. PARAM must include all descriptive and qualifying information relevant to the analysis purpose of the parameter. \n Some examples are: ""Supine Systolic Blood Pressure (mm Hg)"", ""Log10 (Weight (kg))"", ""Time to First Hypertension Event (Days)"", and ""Estimated Tumor Growth Rate"". PARAM should be sufficient to describe unambiguously the contents of AVAL and/or AVALC. \n Examples of qualifying information that might be relevant to analysis, and are therefore candidates for inclusion in PARAM, are units, specimen type, location, position, machine type, and transformation function. There is no need to include qualifiers that are not relevant to the analysis of PARAM. In contrast to SDTM --TEST, no additional variable is needed to further qualify PARAM. \n PARAM is restricted to a maximum of 200 characters. If the value of PARAM will be used as a variable label in a transposed dataset, then the producer may wish to limit the value of PARAM to 40 characters. Such limitation to 40 characters should not compromise the integrity of the description. \n PARAM is often directly usable in Clinical Study Report displays. Note that in the ADaMIG, ""parameter"" is a synonym of ""analysis parameter."" \n PARAM must be present and populated on every record in a BDS dataset."
ADaMIG v1.3;Basic Data Structure;Analysis Parameter;PARAMCD;Parameter Code;Char;;;;;Req;The short name of the analysis parameter in PARAM. The values of PARAMCD must be no more than 8 characters in length, start with a letter (not underscore), and be comprised only of letters (A-Z), underscore (_), and numerals (0-9). These constraints will allow for a BDS dataset to be transposed in such a way that the values of PARAMCD can be used as valid ADaM variable names per Section 3.1.1, General Variable Conventions. There must be a one-to-one relationship between PARAM and PARAMCD within a dataset. \n PARAMCD must be present and populated on every record in a BDS dataset.
ADaMIG v1.3;Basic Data Structure;Analysis Parameter;PARAMN;Parameter (N);Num;;;;;Perm;Numeric representation of PARAM. Useful for ordering and programmatic manipulation. There must be a one-to-one relationship between PARAM and PARAMN within a dataset for all parameters where PARAMN is populated. \n if PARAMN is populated on any record for a PARAM, it must be populated on every record for that PARAM.
ADaMIG v1.3;Basic Data Structure;Analysis Parameter;PARCATy;Parameter Category y;Char;;;;;Perm;"A categorization of PARAM within a dataset. For example, values of PARCAT1 might group the parameters having to do with a particular questionnaire, lab specimen type, or area of investigation. Note that PARCATy is not a qualifier for PARAM. PARAM to PARCATy is a many-to-one mapping; any given PARAM may be associated with at most one level of PARCATy (e.g., one level of PARCAT1 and one level of PARCAT2)."
ADaMIG v1.3;Basic Data Structure;Analysis Parameter;PARCATyN;Parameter Category y (N);Num;;;;;Perm;Numeric representation of PARCATy. Useful for the ordering of values of PARCATy or for other purposes. There must be a one-to-one relationship between PARCATy and PARCATyN within a dataset. \n PARCATyN cannot be present unless PARCATy is also present. When PARCATy and PARCATyN are present, then on a given record, either both must be populated or both must be null.
ADaMIG v1.3;Basic Data Structure;Analysis Parameter;AVAL;Analysis Value;Num;;;;;Cond;Numeric analysis value described by PARAM. On a given record, it is permissible for AVAL, AVALC, or both to be null. AVAL is required if AVALC is not present, since either AVAL or AVALC must be present in the dataset.
ADaMIG v1.3;Basic Data Structure;Analysis Parameter;AVALC;Analysis Value (C);Char;;;;;Cond;Character analysis value described by PARAM. AVALC can be a character string mapping to AVAL, but if so there must be a one-to-one relationship between AVAL and AVALC within a given PARAM. AVALC should not be used to categorize the values of AVAL. Within a given parameter, if there exists a row on which both AVALC and AVAL are populated, then there must be a one-to-one relationship between AVALC and AVAL on all rows on which both variables are populated. (In other words, there is no requirement that records with a null value in either AVAL or AVALC be included when determining whether the one-to-one relationship requirement is satisfied.) On a given record, it is permissible for AVAL, AVALC, or both to be null. \n AVALC is required if AVAL is not present, since either AVAL or AVALC must be present in the dataset.
ADaMIG v1.3;Basic Data Structure;Analysis Parameter;AVALCATy;Analysis Value Category y;Char;;;;;Perm;"A categorization of AVAL or AVALC within a parameter. Not necessarily a one-to-one mapping to AVAL and/or AVALC. For example, if PARAM is ""Headache Severity"" and AVAL has values 0, 1, 2, or 3, AVALCAT1 can categorize AVAL into ""None or Mild"" (for AVAL 0 or 1) and ""Moderate or Severe"" (for AVAL 2 or 3). AVALCATy is parameter variant."
ADaMIG v1.3;Basic Data Structure;Analysis Parameter;AVALCAyN;Analysis Value Category y (N);Num;;;;;Perm;Numeric representation of AVALCATy. Useful for ordering of values of AVALCATy or for other purposes. There must be a one-to-one relationship between AVALCAyN and AVALCATy within a parameter. \n AVALCAyN cannot be present unless AVALCATy is also present. When AVALCATy and AVALCAyN are present, then on a given record, either both must be populated or both must be null.
ADaMIG v1.3;Basic Data Structure;Analysis Parameter;BASE;Baseline Value;Num;;;;;Cond;"The subject's baseline analysis value for a parameter and baseline definition (i.e., BASETYPE) if present. BASE contains the value of AVAL copied from a record within the parameter on which ABLFL = ""Y"". Required if dataset supports analysis or review of numeric baseline value or functions of numeric baseline value. If BASE is populated for a parameter, and BASE is non-null for a subject for that parameter, then there must be a record flagged by ABLFL for that subject and parameter. Note that a baseline record may be derived (e.g., it may be an average) in which case DTYPE must be populated on the baseline record."
ADaMIG v1.3;Basic Data Structure;Analysis Parameter;BASEC;Baseline Value (C);Char;;;;;Perm;"The subject's baseline value of AVALC for a parameter and baseline definition (i.e., BASETYPE) if present. May be needed when AVALC is of interest. BASEC contains the value of AVALC copied from a record within the parameter on which ABLFL = ""Y"". If both AVAL and AVALC are populated within a parameter, the baseline record for AVALC must be the same record as that for AVAL. \n Within a given parameter, if there exists a row on which both BASEC and BASE are populated, then there must be a one-to-one relationship between BASEC and BASE on all rows on which both variables are populated. (In other words, there is no requirement that records with a null value in either BASE or BASEC be included when determining whether the one-to-one relationship requirement is satisfied.) On a given record, it is permissible for BASE, BASEC, or both to be null."
ADaMIG v1.3;Basic Data Structure;Analysis Parameter;BASECATy;Baseline Category y;Char;;;;;Perm;"A categorization of BASE or BASEC within a parameter. Not necessarily a one-to-one mapping to BASE or BASEC. For example, if PARAM is ""Headache Severity"" and AVAL has values 0, 1, 2, or 3, BASECAT1 can categorize BASE into ""None or Mild"" (for BASE 0 or 1) and ""Moderate or Severe"" (for BASE 2 or 3)."
ADaMIG v1.3;Basic Data Structure;Analysis Parameter;BASECAyN;Baseline Category y (N);Num;;;;;Perm;Numeric representation of BASECATy. Useful for ordering of values of BASECATy or for other purposes. There must be a one-to-one relationship between BASECAyN and BASECATy within a parameter. \n BASECAyN cannot be present unless BASECATy is also present. When BASECATy and BASECAyN are present, then on a given record, either both must be populated or both must be null.
ADaMIG v1.3;Basic Data Structure;Analysis Parameter;BASETYPE;Baseline Type;Char;;;;;Cond;Producer-defined text describing the definition of baseline relevant to the value of BASE on the current record. Required when there are multiple ways that baseline is defined. If used for any PARAM within a dataset, it must be non-null for all records for that PARAM within that dataset where either BASE or BASEC are also non-null. Refer to Section 4.2.1.6, Rule 6, for an example.
ADaMIG v1.3;Basic Data Structure;Analysis Parameter;CHG;Change from Baseline;Num;;;;;Perm;Change from baseline analysis value. Equal to AVAL-BASE. If used for a given PARAM, should be populated for all post-baseline records of that PARAM regardless of whether that record is used for analysis. The decision on how to populate pre-baseline and baseline values of CHG is left to producer choice.
ADaMIG v1.3;Basic Data Structure;Analysis Parameter;CHGCATy;Change from Baseline Category y;Char;;;;;Perm;"A categorization of CHG within a parameter. Not necessarily a one-to-one mapping to CHG. The definition of CHGCATy may vary by PARAM. For example, CHGCAT1 may be used to categorize CHG with respect to ranges of change in SYSBP; ""-10 to -5 mm Hg"", ""-5 to 0 mm Hg"" categories."
ADaMIG v1.3;Basic Data Structure;Analysis Parameter;CHGCATyN;Change from Baseline Category y (N);Num;;;;;Perm;Numeric representation of CHGCATy. Useful for ordering of values of CHGCATy or for other purposes. There must be a one-to-one relationship between CHGCATyN and CHGCATy within a parameter. \n CHGCATyN cannot be present unless CHGCATy is also present. When CHGCATy and CHGCATyN are present, then on a given record, either both must be populated or both must be null.
ADaMIG v1.3;Basic Data Structure;Analysis Parameter;PCHG;Percent Change from Baseline;Num;;;;;Perm;Percent change from baseline analysis value. Equal to ((AVAL-BASE)/BASE)*100. If used for a given PARAM, should be populated (when calculable) for all post-baseline records of that PARAM regardless of whether that record is used for analysis. The decision on how to populate pre-baseline and baseline values of PCHG is left to producer choice.
ADaMIG v1.3;Basic Data Structure;Analysis Parameter;PCHGCATy;Percent Chg from Baseline Category y;Char;;;;;Perm;"A categorization of PCHG within a parameter. Not necessarily a one-to-one mapping to PCHG. The definition of PCHGCATy may vary by PARAM. For example, PCHGCAT1 may be used to categorize PCHG with respect to ranges of change in SYSBP; "">5%"", "">10%"" categories."
ADaMIG v1.3;Basic Data Structure;Analysis Parameter;PCHGCAyN;Percent Chg from Baseline Category y (N);Num;;;;;Perm;Numeric representation of PCHGCATy. Useful for ordering of values of PCHGCATy or for other purposes. There must be a one-to-one relationship between PCHGCAyN and PCHGCATy within a parameter. \n PCHGCAyN cannot be present unless PCHGCATy is also present. When PCHGCATy and PCHGCAyN are present, then on a given record, either both must be populated or both must be null.
ADaMIG v1.3;Basic Data Structure;Analysis Parameter;R2BASE;Ratio to Baseline;Num;;;;;Perm;Ratio to the baseline value. Equal to AVAL / BASE. If used for a given PARAM, should be populated for all post-baseline records of that PARAM regardless of whether that record is used for analysis. The decision on how to populate pre-baseline and baseline values of R2BASE is left to producer choice.
ADaMIG v1.3;Basic Data Structure;Analysis Parameter;R2AyLO;Ratio to Analysis Range y Lower Limit;Num;;;;;Perm;Ratio to the lower limit of the analysis range y. Equal to AVAL / AyLO. AyLO must exist in the ADaM dataset. If used for a given PARAM, should be populated for all post-baseline records of that PARAM regardless of whether that record is used for analysis. The decision on how to populate pre-baseline and baseline values of R2AyLO is left to producer choice.
ADaMIG v1.3;Basic Data Structure;Analysis Parameter;R2AyHI;Ratio to Analysis Range y Upper Limit;Num;;;;;Perm;Ratio to the upper limit of the analysis range y. Equal to AVAL / AyHI. AyHI must exist in the ADaM dataset. If used for a given PARAM, should be populated for all post-baseline records of that PARAM regardless of whether that record is used for analysis. The decision on how to populate pre-baseline and baseline values of R2AyHI is left to producer choice.
ADaMIG v1.3;Basic Data Structure;Analysis Parameter;SHIFTy;Shift y;Char;;;;;Perm;"A shift in values depending on the defined pairing for group y within a parameter. SHIFTy can only be based on the change in value of any of the following pairs (BASECATy, AVALCATy), (BNRIND, ANRIND), (ByIND, AyIND), (BTOXGR, ATOXGR), (BTOXGRL, ATOXGRL), (BTOXGRH, ATOXGRH), (BASE, AVAL) or (BASEC, AVALC). Useful for shift tables. For example, ""NORMAL to HIGH"". If used for a given PARAM, should be populated (when calculable) for all post-baseline records of that PARAM regardless of whether that record is used for analysis. The decision on how to populate baseline and pre-baseline values of SHIFTy is left to producer choice."
ADaMIG v1.3;Basic Data Structure;Analysis Parameter;SHIFTyN;Shift y (N);Num;;;;;Perm;Numeric representation of SHIFTy. There must be a one-to-one relationship between SHIFTyN and SHIFTy within a parameter.SHIFTyN cannot be present unless SHIFTy is also present. When SHIFTy and SHIFTyN are present, then on a given record, either both must be populated or both must be null.If SHIFTyN is used for a given PARAM, SHIFTy and SHIFTyN should be populated (when calculable) for all post-baseline records of that PARAM regardless of whether that record is used for analysis.
ADaMIG v1.3;Basic Data Structure;Analysis Parameter;BCHG;Change to Baseline;Num;;;;;Perm;Change to baseline analysis value. Equal to BASE-AVAL. If used for a given PARAM, should be populated for all post-baseline records of that PARAM regardless of whether that record is used for analysis. The decision on how to populate pre-baseline and baseline values of BCHG is left to producer choice.
ADaMIG v1.3;Basic Data Structure;Analysis Parameter;BCHGCATy;Change to Baseline Category y;Char;;;;;Perm;"A categorization of BCHG within a parameter. Not necessarily a one-to-one mapping to BCHG. The definition of BCHGCATy may vary by PARAM. For example, BCHGCAT1 may be used to categorize BCHG with respect to ranges of change in SYSBP; ""-10 to -5 mm Hg"", ""-5 to 0 mm Hg"" categories."
ADaMIG v1.3;Basic Data Structure;Analysis Parameter;BCHGCAyN;Change to Baseline Category y (N);Num;;;;;Perm;Numeric representation of BCHGCATy. Useful for ordering of values of BCHGCATy or for other purposes. There must be a one-to-one relationship between BCHGCAyN and BCHGCATy within a parameter. \n BCHGCAyN cannot be present unless BCHGCATy is also present. When BCHGCATy and BCHGCAyN are present, then on a given record, either both must be populated or both must be null.
ADaMIG v1.3;Basic Data Structure;Analysis Parameter;PBCHG;Percent Change to Baseline;Num;;;;;Perm;Percent change to baseline analysis value. Equal to ((BASE-AVAL)/AVAL)*100. If used for a given PARAM, should be populated (when calculable) for all post-baseline records of that PARAM regardless of whether that record is used for analysis. The decision on how to populate pre-baseline and baseline values of PBCHG is left to producer choice
ADaMIG v1.3;Basic Data Structure;Analysis Parameter;PBCHGCAy;Percent Change to Baseline Category y;Char;;;;;Perm;"A categorization of PBCHG within a parameter. Not necessarily a one-to-one mapping to PBCHG. The definition of PBCHGCAy may vary by PARAM. For example, PBCHGCA1 may be used to categorize PBCHG with respect to ranges of change in SYSBP; "">5%"", "">10%"" categories."
ADaMIG v1.3;Basic Data Structure;Analysis Parameter;PBCHGCyN;Percent Change to Baseline Category y (N);Num;;;;;Perm;Numeric representation of PBCHGCAy. Useful for ordering of values of PBCHGCAy or for other purposes. There must be a one-to-one relationship between PBCHGCyN and PBCHGCAy within a parameter. \n PBCHGCyN cannot be present unless PBCHGCAy is also present. When PBCHGCAy and PBCHGCyN are present, then on a given record, either both must be populated or both must be null.
ADaMIG v1.3;Basic Data Structure;Analysis Parameter Criteria;CRITy;Analysis Criterion y;Char;;;;;Perm;A text string identifying a pre-specified criterion within a parameter, for example SYSBP > 90. Required if CRITyFL is present. In some cases, the presence of the text string indicates that the criterion is satisfied on this record and CRITyFL is set to Y, while a null value indicates that the criterion is not satisfied or is not evaluable and is accompanied by a null value in CRITyFL. In other cases, the text string identifies the criterion being evaluated and is populated on every row for the parameter, but whether or not the criterion is satisfied is indicated by the value of the variable CRITyFL. See CRITyFL and CRITyFN. \n Refer to Section 4.7, Identification of Records which Satisfy a Predefined Criterion for Analysis Purposes, for additional discussion of CRITy, CRITyFL and CRITyFN.
ADaMIG v1.3;Basic Data Structure;Analysis Parameter Criteria;CRITyFL;Criterion y Evaluation Result Flag;Char;;;;"Y; N";Cond;Character flag variable indicating whether the criterion defined in CRITy was met by the data on the record. See CRITy for more information regarding how to use CRITy and CRITyFL to indicate whether a criterion is met. Required if CRITy is present. \n Refer to Section 4.7, Identification of Records which Satisfy a Predefined Criterion for Analysis Purposes, for additional discussion.
ADaMIG v1.3;Basic Data Structure;Analysis Parameter Criteria;CRITyFN;Criterion y Evaluation Result Flag (N);Num;;;;"1; 0";Perm;Numeric representation of CRITyFL. There must be a one-to-one relationship between CRITyFN and CRITyFL within a parameter. \n CRITyFN cannot be present unless CRITyFL is also present. When CRITyFL and CRITyFN are present, then on a given record, either both must be populated or both must be null.
ADaMIG v1.3;Basic Data Structure;Analysis Parameter Criteria;MCRITy;Analysis Multi-Response Criterion y;Char;;;;;Perm;"A text string identifying a pre-specified criterion within a parameter, where the criterion can have multiple responses (as opposed to CRITy which has binary responses). Required if MCRITyML is present. For example, the grade of a lab analyte is compared to the baseline grade, with the possible conditions being 0 to 1, 0 to 2, etc. The text string identifies the criterion being evaluated (for example, ""Grade increase"") and is populated on every row for the parameter; which level of the criterion is satisfied is indicated by the value of the variable MCRITyML (for example ""0 to 1"", ""0 to 2"", etc.). \n See MCRITyML and MCRITyMN below, and refer to Section 4.7, Identification of Records which Satisfy a Predefined Criterion for Analysis Purposes, for additional discussion of MCRITy, MCRITyML, and MCRITyMN."
ADaMIG v1.3;Basic Data Structure;Analysis Parameter Criteria;MCRITyML;Multi-Response Criterion y Evaluation;Char;;;;;Cond;Character variable indicating which level of the criterion defined in MCRITy was met by the data on the record. See MCRITy for more information regarding how to use MCRITy and MCRITyML to indicate whether a criterion was met. Content is sponsor-defined. Required if MCRITy is present.
ADaMIG v1.3;Basic Data Structure;Analysis Parameter Criteria;MCRITyMN;Multi-Response Criterion y Eval (N);Num;;;;;Perm;Numeric representation of MCRITyML. There must be a one-to-one relationship between MCRITyMN and MCRITyML within a parameter. Content is sponsor-defined. \n MCRITyMN cannot be present unless MCRITyML is also present. When MCRITyML and MCRITyMN are present, then on a given record, either both must be populated or both must be null.
ADaMIG v1.3;Basic Data Structure;Analysis Descriptor;DTYPE;Derivation Type;Char;C81224;DTYPE;;;Cond;"Analysis value derivation method. DTYPE is used to denote, and must be populated, when the value of AVAL or AVALC has been imputed or derived differently than the other analysis values within the parameter. DTYPE is required to be populated even if AVAL and AVALC are null on the derived record. \n Three common situations when DTYPE should be populated: \n * A new row is added within a parameter with the analysis value populated based on other rows within the parameter. \n * A new row is added within a parameter with the analysis value populated based on a constant value or data from other subjects. \n * An analysis value (AVAL or AVALC) on an existing record is being replaced with a value based on a pre-specified algorithm. \n DTYPE is used to denote analysis values that are ""special cases"" within a parameter. For each value of DTYPE, the precise derivation algorithm must be defined in analysis variable metadata, even for DTYPE values in the CDISC Controlled Terminology. The controlled terminology for DTYPE is extensible. See Section 4, Implementation Issues, Standard Solutions, and Examples for examples of the use of DTYPE. \n Some examples of DTYPE values: \n * LOCF = last observation carried forward \n * WOCF = worst observation carried forward \n * AVERAGE = average of values"
ADaMIG v1.3;Basic Data Structure;Analysis Visit Windowing;AWRANGE;Analysis Window Valid Relative Range;Char;;;;;Perm;"The range of values that are valid for a given analysis timepoint (a given value of AVISIT). For example, ""5-9 DAYS""."
ADaMIG v1.3;Basic Data Structure;Analysis Visit Windowing;AWTARGET;Analysis Window Target;Num;;;;;Perm;The target or most desired analysis relative day (ADY) value or analysis relative time (ARELTM) value for a given value of AVISIT.
ADaMIG v1.3;Basic Data Structure;Analysis Visit Windowing;AWTDIFF;Analysis Window Diff from Target;Num;;;;;Perm;Absolute difference between ADY or ARELTM and AWTARGET. It will be necessary to adjust for the fact that there is no Day 0 in the event that ADY and AWTARGET are not of the same sign. \n If the sign of the difference is important, then AWTDIFF might have to be used in conjunction with ADY or ARELTM and possibly AWTARGET when choosing among records.
ADaMIG v1.3;Basic Data Structure;Analysis Visit Windowing;AWLO;Analysis Window Beginning Timepoint;Num;;;;;Perm;"The value of the beginning timepoint (inclusive) needs to be used in conjunction to AWRANGE. For example, if AWRANGE is ""5-9 DAYS"", then AWLO is ""5""."
ADaMIG v1.3;Basic Data Structure;Analysis Visit Windowing;AWHI;Analysis Window Ending Timepoint;Num;;;;;Perm;"The value of the ending timepoint (inclusive) needs to be used in conjunction to AWRANGE. For example, if AWRANGE is ""5-9 DAYS"", then AWHI is ""9""."
ADaMIG v1.3;Basic Data Structure;Analysis Visit Windowing;AWU;Analysis Window Unit;Char;;;;;Perm;Unit used for AWTARGET, AWTDIFF, AWLO and AWHI. Examples: DAYS, HOURS.
ADaMIG v1.3;Basic Data Structure;Time-to-Event;STARTDT;Time-to-Event Origin Date for Subject;Num;;;;;Perm;The original date of risk for the time-to-event analysis. This is generally the point at which a subject is first at risk for the event of interest evaluation (as defined in the Protocol or SAP). For example, this may be the randomization date or the date of first study therapy exposure.
ADaMIG v1.3;Basic Data Structure;Time-to-Event;STARTDTM;Time-to-Event Origin Datetime;Num;;;;;Perm;The original datetime of risk for the time-to-event analysis. This is generally the point at which a subject is first at risk for the event of interest evaluation (as defined in the Protocol or SAP). For example, this may be the randomization datetime or the datetime of first study therapy exposure.
ADaMIG v1.3;Basic Data Structure;Time-to-Event;STARTDTF;Origin Date Imputation Flag;Char;C81223;DATEFL;;;Cond;The level of imputation of the start date. See Section 3.1.3, Date and Time Imputation Flag Variables.
ADaMIG v1.3;Basic Data Structure;Time-to-Event;STARTTMF;Origin Time Imputation Flag;Char;C81226;TIMEFL;;;Cond;The level of imputation of the start time. See Section 3.1.3, Date and Time Imputation Flag Variables.
ADaMIG v1.3;Basic Data Structure;Time-to-Event;CNSR;Censor;Num;;;;;Cond;Defines whether the event was censored for the subject within the parameter (period of observation truncated prior to event being observed). It is strongly recommended to use 0 as an event indicator and positive integers as censoring indicators. It is also recommended that unique positive integers be used to indicate coded descriptions of censoring reasons. CNSR is required for time-to-event parameters.
ADaMIG v1.3;Basic Data Structure;Time-to-Event;EVNTDESC;Event or Censoring Description;Char;;;;;Perm;Description of the event of interest or censoring reason for the subject within the parameter.
ADaMIG v1.3;Basic Data Structure;Time-to-Event;CNSDTDSC;Censor Date Description;Char;;;;;Perm;Describes the circumstance represented by the censoring date if different from the event date that warrants censoring.
ADaMIG v1.3;Basic Data Structure;Toxicity and Range;ATOXGR;Analysis Toxicity Grade;Char;;;;;Perm;"Toxicity grade of AVAL or AVALC for analysis; may be based on SDTM --TOXGR or an imputed or assigned value."
ADaMIG v1.3;Basic Data Structure;Toxicity and Range;ATOXGRN;Analysis Toxicity Grade (N);Num;;;;;Perm;Numeric representation of ATOXGR. There must be a one-to-one relationship between ATOXGRN and ATOXGR within a parameter. \n ATOXGRN cannot be present unless ATOXGR is also present. When ATOXGR and ATOXGRN are present, then on a given record, either both must be populated or both must be null.
ADaMIG v1.3;Basic Data Structure;Toxicity and Range;BTOXGR;Baseline Toxicity Grade;Char;;;;;Perm;ATOXGR of the baseline record identified by ABLFL.
ADaMIG v1.3;Basic Data Structure;Toxicity and Range;BTOXGRN;Baseline Toxicity Grade (N);Num;;;;;Perm;Numeric representation of BTOXGR. There must be a one-to-one relationship between BTOXGRN and BTOXGR within a parameter. \n BTOXGRN cannot be present unless BTOXGR is also present. When BTOXGR and BTOXGRN are present, then on a given record, either both must be populated or both must be null.
ADaMIG v1.3;Basic Data Structure;Toxicity and Range;ANRIND;Analysis Reference Range Indicator;Char;;;;;Perm;"Indicates where AVAL or AVALC falls with respect to the normal reference range for analysis; may be based on SDTM --NRIND or an imputed or assigned value."
ADaMIG v1.3;Basic Data Structure;Toxicity and Range;BNRIND;Baseline Reference Range Indicator;Char;;;;;Perm;ANRIND of the baseline record identified by ABLFL.
ADaMIG v1.3;Basic Data Structure;Toxicity and Range;ANRLO;Analysis Normal Range Lower Limit;Num;;;;;Perm;"Normal range lower limit for analysis; may be based on SDTM --NRLO or an imputed or assigned value."
ADaMIG v1.3;Basic Data Structure;Toxicity and Range;ANRLOC;Analysis Normal Range Lower Limit (C);Char;;;;;Perm;Character analysis normal range lower limit. \n ANRLOC can be a character string mapping to ANRLO, but if so there must be a one-to-one relationship between ANRLO and ANRLOC within a given PARAM. ANRLOC should not be used to categorize the values of ANRLO. \n Within a given parameter, if there exists a row on which both ANRLOC and ANRLO are populated, then there must be a one-to-one relationship between ANRLOC and ANRLO on all rows on which both variables are populated. (In other words, there is no requirement that records with a null value in either ANRLO or ANRLOC be included when determining whether the one-to-one relationship requirement is satisfied.) On a given record, it is permissible for ANRLO, ANRLOC, or both to be null.
ADaMIG v1.3;Basic Data Structure;Toxicity and Range;ANRHI;Analysis Normal Range Upper Limit;Num;;;;;Perm;"Normal range upper limit for analysis; may be based on SDTM --NRHI or an imputed or assigned value."
ADaMIG v1.3;Basic Data Structure;Toxicity and Range;ANRHIC;Analysis Normal Range Upper Limit (C);Char;;;;;Perm;Character analysis normal range upper limit. \n ANRHIC can be a character string mapping to ANRHI, but if so there must be a one-to-one relationship between ANRHI and ANRHIC within a given PARAM. ANRHIC should not be used to categorize the values of ANRHI. \n Within a given parameter, if there exists a row on which both ANRHIC and ANRHI are populated, then there must be a one-to-one relationship between ANRHIC and ANRHI on all rows on which both variables are populated. (In other words, there is no requirement that records with a null value in either ANRHI or ANRHIC be included when determining whether the one-to-one relationship requirement is satisfied.) On a given record, it is permissible for ANRHI, ANRHIC, or both to be null.
ADaMIG v1.3;Basic Data Structure;Toxicity and Range;AyLO;Analysis Range y Lower Limit;Num;;;;;Cond;AyLO and/or AyHI are used for analysis ranges other than the normal range. AyLO and/or AyHI are created to capture the different levels of cutoff values used to determine whether an analysis is within a clinically acceptable value range or outside that value range. AyLO and/or AyHI are usually but not necessarily constants, parameter-specific constants, or subject-specific constants. AyLO must be included if R2AyLO is included in the dataset.
ADaMIG v1.3;Basic Data Structure;Toxicity and Range;AyLOC;Analysis Range y Lower Limit (C);Char;;;;;Perm;Character analysis range y lower limit. \n AyLOC can be a character string mapping to AyLO, but if so there must be a one-to-one relationship between AyLO and AyLOC within a given PARAM. AyLOC should not be used to categorize the values of AyLO. \n Within a given parameter, if there exists a row on which both AyLOC and AyLO are populated, then there must be a one-to-one relationship between AyLOC and AyLO on all rows on which both variables are populated. (In other words, there is no requirement that records with a null value in either AyLO or AyLOC be included when determining whether the one-to-one relationship requirement is satisfied.) On a given record, it is permissible for AyLO, AyLOC, or both to be null.
ADaMIG v1.3;Basic Data Structure;Toxicity and Range;AyHI;Analysis Range y Upper Limit;Num;;;;;Cond;"See AyLO. \n For example, if ECG QTc values are summarized based on values >450, values >480, and values >500, there is a need for 3 ""hi value"" range variables against which to compare values: A1HI=450, A2HI=480, A3HI=500. \n AyHI must be included if R2AyHI is included in the dataset."
ADaMIG v1.3;Basic Data Structure;Toxicity and Range;AyHIC;Analysis Range y Upper Limit (C);Char;;;;;Perm;Character analysis range y upper limit. \n AyHIC can be a character string mapping to AyHI, but if so there must be a one-to-one relationship between AyHI and AyHIC within a given PARAM. AyHIC should not be used to categorize the values of AyHI. \n Within a given parameter, if there exists a row on which both AyHIC and AyHI are populated, then there must be a one-to-one relationship between AyHIC and AyHI on all rows on which both variables are populated. (In other words, there is no requirement that records with a null value in either AyHI or AyHIC be included when determining whether the one-to-one relationship requirement is satisfied.) On a given record, it is permissible for AyHI, AyHIC, or both to be null.
ADaMIG v1.3;Basic Data Structure;Toxicity and Range;AyIND;Analysis Range y Indicator;Char;;;;;Perm;Indicates relationship of AVAL to the analysis range variables AyLO and/or AyHI, or the relationship of AVALC to the analysis range variables AyLOC and/or AyHIC.
ADaMIG v1.3;Basic Data Structure;Toxicity and Range;ByIND;Baseline Analysis Range y Indicator;Char;;;;;Perm;AyIND of the baseline record identified by ABLFL.
ADaMIG v1.3;Basic Data Structure;Toxicity and Range;ATOXGRL;Analysis Toxicity Grade Low;Char;;;;;Perm;"Low toxicity grade of AVAL or AVALC for analysis; may be based on SDTM --TOXGR or an imputed or assigned value. Used to assess when a subject's lab value falls within the low toxicity range."
ADaMIG v1.3;Basic Data Structure;Toxicity and Range;ATOXGRLN;Analysis Toxicity Grade Low (N);Num;;;;;Perm;Numeric representation of ATOXGRL. There must be a one-to-one relationship between ATOXGRLN and ATOXGRL within a parameter. \n ATOXGRLN cannot be present unless ATOXGRL is also present. When ATOXGRL and ATOXGRLN are present, then on a given record, either both must be populated or both must be null.
ADaMIG v1.3;Basic Data Structure;Toxicity and Range;ATOXGRH;Analysis Toxicity Grade High;Char;;;;;Perm;"High toxicity grade of AVAL or AVALC for analysis; may be based on SDTM --TOXGR or an imputed or assigned value. Used to assess when a subject's lab value falls within the high toxicity range."
ADaMIG v1.3;Basic Data Structure;Toxicity and Range;ATOXGRHN;Analysis Toxicity Grade High (N);Num;;;;;Perm;Numeric representation of ATOXGRH. There must be a one-to-one relationship between ATOXGRHN and ATOXGRH within a parameter. \n ATOXGRHN cannot be present unless ATOXGRH is also present. When ATOXGRH and ATOXGRHN are present, then on a given record, either both must be populated or both must be null.
ADaMIG v1.3;Basic Data Structure;Toxicity and Range;BTOXGRL;Baseline Toxicity Grade Low;Char;;;;;Perm;ATOXGRL of the baseline record identified by ABLFL.
ADaMIG v1.3;Basic Data Structure;Toxicity and Range;BTOXGRLN;Baseline Toxicity Grade Low (N);Num;;;;;Perm;Numeric representation of BTOXGRL. There must be a one-to-one relationship between BTOXGRLN and BTOXGRL within a parameter. \n BTOXGRLN cannot be present unless BTOXGRL is also present. When BTOXGRL and BTOXGRLN are present, then on a given record, either both must be populated or both must be null.
ADaMIG v1.3;Basic Data Structure;Toxicity and Range;BTOXGRH;Baseline Toxicity Grade High;Char;;;;;Perm;ATOXGRH of the baseline record identified by ABLFL.
ADaMIG v1.3;Basic Data Structure;Toxicity and Range;BTOXGRHN;Baseline Toxicity Grade High (N);Num;;;;;Perm;Numeric representation of BTOXGRH. There must be a one-to-one relationship between BTOXGRHN and BTOXGRH within a parameter. \n BTOXGRHN cannot be present unless BTOXGRH is also present. When BTOXGRH and BTOXGRHN are present, then on a given record, either both must be populated or both must be null.
ADaMIG v1.3;Basic Data Structure;Toxicity and Range;ATOXDSCL;Analysis Toxicity Description Low;Char;;;;;Perm;The analysis toxicity term used to describe toxicity in the low direction. ATOXDSCL is only populated if AVAL is populated and the PARAM is evaluated for toxicity in the low direction. There is a one-to-one relationship between ATOXDSCL and PARAM within a subject. The intent of this variable is to describe the type of toxicity being evaluated and not the level of toxicity on the specific record.
ADaMIG v1.3;Basic Data Structure;Toxicity and Range;ATOXDSCH;Analysis Toxicity Description High;Char;;;;;Perm;The analysis toxicity term used to describe toxicity in the high direction. ATOXDSCH is only populated if AVAL is populated and the PARAM is evaluated for toxicity in the high direction. There is a one-to-one relationship between ATOXDSCH and PARAM within a subject. The intent of this variable is to describe the type of toxicity being evaluated and not the level of toxicity on the specific record.
ADaMIG v1.3;Basic Data Structure;Flag;ABLFL;Baseline Record Flag;Char;;;;Y;Cond;Character indicator to identify the baseline record for each subject, parameter, and baseline type (BASETYPE) combination. See BASETYPE in Table 3.3.4.1.1. ABLFL is required if BASE is present in the dataset. \n A baseline record may be derived (e.g., it may be an average), in which case DTYPE must also be populated. If BASE is populated for a parameter, and BASE is non-null for a subject for that parameter, then there must be a record flagged by ABLFL for that subject and parameter.
ADaMIG v1.3;Basic Data Structure;Flag;ABLFN;Baseline Record Flag (N);Num;;;;1;Perm;Numeric representation of ABLFL. There must be a one-to-one relationship between ABLFN and ABLFL. \n ABLFN cannot be present unless ABLFL is also present. When ABLFL and ABLFN are present, then on a given record, either both must be populated or both must be null.
ADaMIG v1.3;Basic Data Structure;Flag;ANLzzFL;Analysis Flag zz;Char;;;;Y;Cond;"ANLzzFL is a conditionally required flag to be used in addition to other selection variables when the other selection variables in combination are insufficient to identify the exact set of records used for one or more analyses. Often one ANLzzFL will serve to support the accurate selection of records for more than one analysis. Note that it is allowable to add additional descriptive text to the label (see Section 3.1.6, Additional Information about Section 3, Item 1). \n When defining the set of records used in a particular analysis or family of analyses, ANLzzFL is supplemental to, and is intended to be used in conjunction with, other selection variables, such as subject-level, parameter-level and record-level population flags, AVISIT, DTYPE, grouping variables such as SITEGRy, and others. The lower-case letter ""zz"" in the variable name is an index for the zzth record selection algorithm where ""zz"" is replaced with a zero-padded two-digit integer [01-99]. Every record selection algorithm ""zz"" (i.e., every algorithm for populating an ANLzzFL) must be defined in variable metadata. When the set of records that the algorithm ""zz"" operates on is pre-filtered by application of other criteria, such as a record-level population flag, then the selection algorithm definition in the metadata must so specify. \n Note that the ANLzzFL value of Y indicates that the record fulfilled the requirements of the algorithm, but does not necessarily imply that the record was actually used in one or more analyses, as whether or not a record is used also depends on the other selection variables applied. The ANLzzFL flag is useful in many circumstances; an example is when there is more than one record for an analysis timepoint within a subject and parameter, as it can be used to identify the record chosen to represent the timepoint for an analysis. ""zz"" is an index for a record selection algorithm, such as ""record closest to target relative day for the AVISIT, with ties broken by the latest record, for each AVISIT within <list of AVISITS>."" \n Note that it is not required that a specific ANLzzFL variable has the same definition across a project or even across datasets within a study. There is also no requirement that the ANLzzFL variables in a dataset or study be used in numerical order; e.g. ANL02FL might occur in a dataset or study without ANL01FL present in the same dataset or study."
ADaMIG v1.3;Basic Data Structure;Flag;ANLzzFN;Analysis Flag zz (N);Num;;;;1;Perm;Numeric representation of ANLzzFL. There must be a one-to-one relationship between ANLzzFN and ANLzzFL within a dataset. \n ANLzzFN cannot be present unless ANLzzFL is also present. When ANLzzFL and ANLzzFN are present, then on a given record, either both must be populated or both must be null.
ADaMIG v1.3;Basic Data Structure;Flag;ONTRTFL;On Treatment Record Flag;Char;;;;Y;Perm;Character indicator of whether the observation occurred while the subject was on treatment. ONTRTFL is producer-defined, and its definition may vary across datasets in a study based on analysis needs.
ADaMIG v1.3;Basic Data Structure;Flag;ONTRTFN;On Treatment Record Flag (N);Num;;;;1;Perm;Numeric representation of ONTRTFL. There must be a one-to-one relationship between ONTRTFN and ONTRTFL within a dataset. \n ONTRTFN cannot be present unless ONTRTFL is also present. When ONTRTFL and ONTRTFN are present, then on a given record, either both must be populated or both must be null.
ADaMIG v1.3;Basic Data Structure;Flag;LVOTFL;Last Value On Treatment Record Flag;Char;;;;Y;Perm;Character indicator of the subject's last non-missing value on treatment for each parameter.
ADaMIG v1.3;Basic Data Structure;Flag;LVOTFN;Last Value On Treatment Record Flag (N);Num;;;;1;Perm;Numeric representation of LVOTFL. There must be a one-to-one relationship between LVOTFN and LVOTFL within a dataset. \n LVOTFN cannot be present unless LVOTFL is also present. When LVOTFL and LVOTFN are present, then on a given record, either both must be populated or both must be null.
ADaMIG v1.3;Basic Data Structure;Population Indicators;ITTRFL;Intent-To-Treat Record-Level Flag;Char;;;;Y;Perm;"These indicators identify whether or not the subject was in the specified analysis for the specific record. Useful when the subject is included in the subject-level population, but there are records for the subject that do not satisfy requirements for the population. \n The valid values of these record-level population indicators are Y or null. If a flag is used, the corresponding numeric version (*FN, where 1=Yes) of the flag can also be included. As described in Item 8 in Section 3.1.1 General Variable Conventions, the *FN version of the variable can be included only if the corresponding *FL is also included. \n Additional indicators may also be used; refer to Section 3.1.4, Flag Variable Conventions."
ADaMIG v1.3;Basic Data Structure;Population Indicators;SAFRFL;Safety Analysis Record-Level Flag;Char;;;;Y;Perm;"These indicators identify whether or not the subject was in the specified analysis for the specific record. Useful when the subject is included in the subject-level population, but there are records for the subject that do not satisfy requirements for the population. \n The valid values of these record-level population indicators are Y or null. If a flag is used, the corresponding numeric version (*FN, where 1=Yes) of the flag can also be included. As described in Item 8 in Section 3.1.1 General Variable Conventions, the *FN version of the variable can be included only if the corresponding *FL is also included. \n Additional indicators may also be used; refer to Section 3.1.4, Flag Variable Conventions."
ADaMIG v1.3;Basic Data Structure;Population Indicators;FASRFL;Full Analysis Set Record-Level Flag;Char;;;;Y;Perm;"These indicators identify whether or not the subject was in the specified analysis for the specific record. Useful when the subject is included in the subject-level population, but there are records for the subject that do not satisfy requirements for the population. \n The valid values of these record-level population indicators are Y or null. If a flag is used, the corresponding numeric version (*FN, where 1=Yes) of the flag can also be included. As described in Item 8 in Section 3.1.1 General Variable Conventions, the *FN version of the variable can be included only if the corresponding *FL is also included. \n Additional indicators may also be used; refer to Section 3.1.4, Flag Variable Conventions."
ADaMIG v1.3;Basic Data Structure;Population Indicators;PPROTRFL;Per-Protocol Record-Level Flag;Char;;;;Y;Perm;"These indicators identify whether or not the subject was in the specified analysis for the specific record. Useful when the subject is included in the subject-level population, but there are records for the subject that do not satisfy requirements for the population. \n The valid values of these record-level population indicators are Y or null. If a flag is used, the corresponding numeric version (*FN, where 1=Yes) of the flag can also be included. As described in Item 8 in Section 3.1.1 General Variable Conventions, the *FN version of the variable can be included only if the corresponding *FL is also included. \n Additional indicators may also be used; refer to Section 3.1.4, Flag Variable Conventions."
ADaMIG v1.3;Basic Data Structure;Population Indicators;COMPLRFL;Completers Record-Level Flag;Char;;;;Y;Perm;"These indicators identify whether or not the subject was in the specified analysis for the specific record. Useful when the subject is included in the subject-level population, but there are records for the subject that do not satisfy requirements for the population. \n The valid values of these record-level population indicators are Y or null. If a flag is used, the corresponding numeric version (*FN, where 1=Yes) of the flag can also be included. As described in Item 8 in Section 3.1.1 General Variable Conventions, the *FN version of the variable can be included only if the corresponding *FL is also included. \n Additional indicators may also be used; refer to Section 3.1.4, Flag Variable Conventions."
ADaMIG v1.3;Basic Data Structure;Population Indicators;ITTPFL;Intent-To-Treat Parameter-Level Flag;Char;;;;Y;Perm;"These indicators identify whether or not the subject was in the specified analysis for the specific parameter. Useful when the subject is included in the subject-level population, but there are parameters for which the subject does not satisfy requirements for the population. \n The valid values of these parameter-level population indicators are Y or null. If a flag is used, the corresponding numeric version (*FN, where 1=Yes) of the flag can also be included. As described in Item 8 in Section 3.1.1 General Variable Conventions, the *FN version of the variable can be included only if the corresponding *FL is also included. \n Additional indicators may also be used; refer to Section 3.1.4, Flag Variable Conventions."
ADaMIG v1.3;Basic Data Structure;Population Indicators;SAFPFL;Safety Analysis Parameter-Level Flag;Char;;;;Y;Perm;"These indicators identify whether or not the subject was in the specified analysis for the specific parameter. Useful when the subject is included in the subject-level population, but there are parameters for which the subject does not satisfy requirements for the population. \n The valid values of these parameter-level population indicators are Y or null. If a flag is used, the corresponding numeric version (*FN, where 1=Yes) of the flag can also be included. As described in Item 8 in Section 3.1.1 General Variable Conventions, the *FN version of the variable can be included only if the corresponding *FL is also included. \n Additional indicators may also be used; refer to Section 3.1.4, Flag Variable Conventions."
ADaMIG v1.3;Basic Data Structure;Population Indicators;FASPFL;Full Analysis Set Parameter-Level Flag;Char;;;;Y;Perm;"These indicators identify whether or not the subject was in the specified analysis for the specific parameter. Useful when the subject is included in the subject-level population, but there are parameters for which the subject does not satisfy requirements for the population. \n The valid values of these parameter-level population indicators are Y or null. If a flag is used, the corresponding numeric version (*FN, where 1=Yes) of the flag can also be included. As described in Item 8 in Section 3.1.1 General Variable Conventions, the *FN version of the variable can be included only if the corresponding *FL is also included. \n Additional indicators may also be used; refer to Section 3.1.4, Flag Variable Conventions."
ADaMIG v1.3;Basic Data Structure;Population Indicators;PPROTPFL;Per-Protocol Parameter-Level Flag;Char;;;;Y;Perm;"These indicators identify whether or not the subject was in the specified analysis for the specific parameter. Useful when the subject is included in the subject-level population, but there are parameters for which the subject does not satisfy requirements for the population. \n The valid values of these parameter-level population indicators are Y or null. If a flag is used, the corresponding numeric version (*FN, where 1=Yes) of the flag can also be included. As described in Item 8 in Section 3.1.1 General Variable Conventions, the *FN version of the variable can be included only if the corresponding *FL is also included. \n Additional indicators may also be used; refer to Section 3.1.4, Flag Variable Conventions."
ADaMIG v1.3;Basic Data Structure;Population Indicators;COMPLPFL;Completers Parameter-Level Flag;Char;;;;Y;Perm;"These indicators identify whether or not the subject was in the specified analysis for the specific parameter. Useful when the subject is included in the subject-level population, but there are parameters for which the subject does not satisfy requirements for the population. \n The valid values of these parameter-level population indicators are Y or null. If a flag is used, the corresponding numeric version (*FN, where 1=Yes) of the flag can also be included. As described in Item 8 in Section 3.1.1 General Variable Conventions, the *FN version of the variable can be included only if the corresponding *FL is also included. \n Additional indicators may also be used; refer to Section 3.1.4, Flag Variable Conventions."
ADaMIG v1.3;Basic Data Structure;Datapoint Traceability;SRCDOM;Source Data;Char;;;;;Perm;The SDTM domain name or ADaM dataset name that relates to the analysis value (i.e., AVAL or AVALC in a BDS dataset). If the source data is a supplemental qualifier in SDTM, this variable will contain the value of RDOMAIN in SUPP-- or SUPPQUAL.
ADaMIG v1.3;Basic Data Structure;Datapoint Traceability;SRCVAR;Source Variable;Char;;;;;Perm;The name of the column (in the domain or dataset identified by SRCDOM) that relates to the analysis value (i.e., AVAL or AVALC in a BDS dataset). In the event that SRCDOM is a SUPPQUAL, then SRCVAR will be populated with the value of the related QNAM.
ADaMIG v1.3;Basic Data Structure;Datapoint Traceability;SRCSEQ;Source Sequence Number;Num;;;;;Perm;The sequence number --SEQ or ASEQ of the row (in the domain or dataset identified by SRCDOM) that relates to the analysis value (i.e., AVAL or AVALC in a BDS dataset). In the event that SRCDOM is a SUPPQUAL, then this variable will contain the sequence number of the relevant related domain record.
ADaMIG v1.3;Basic Data Structure;Identifier;STUDYID;Study Identifier;Char;;;;;Req;DM.STUDYID, ADSL STUDYID, and/or STUDYID from another ADaM or SDTM dataset appropriate to the analysis.
ADaMIG v1.3;Basic Data Structure;Identifier;USUBJID;Unique Subject Identifier;Char;;;;;Req;DM.USUBJID, ADSL.USUBJID, and/or USUBJID from another ADaM or SDTM dataset appropriate to the analysis.
ADaMIG v1.3;Basic Data Structure;Identifier;SUBJID;Subject Identifier for the Study;Char;;;;;Perm;DM.SUBJID, ADSL.SUBJID, and/or SUBJID from another ADaM dataset appropriate to the analysis. SUBJID is required in ADSL, but permissible in other datasets.
ADaMIG v1.3;Basic Data Structure;Identifier;SITEID;Study Site Identifier;Char;;;;;Perm;DM.SITEID, ADSL.SITEID, and/or SITEID from another ADaM dataset appropriate to the analysis. SITEID is required in ADSL, but permissible in other datasets.
ADaMIG v1.3;Basic Data Structure;Identifier;ASEQ;Analysis Sequence Number;Num;;;;;Perm;Sequence number given to ensure uniqueness of subject records within an ADaM dataset. As long as values are unique within a subject within the dataset, any valid number can be used for ASEQ. ASEQ uniquely indexes records within a subject within an ADaM dataset. \n ASEQ is useful for traceability when the dataset is used as input to another ADaM dataset. To refer to a record in a predecessor ADaM dataset, set SRCDOM to the name of the predecessor dataset, and set SRCSEQ to the value of ASEQ in the predecessor dataset.
ADaM OCCDS v1.1;Occurrence Data Structure;Identifier;STUDYID;Study Identifier;Char;;;;;Req;XX.STUDYID
ADaM OCCDS v1.1;Occurrence Data Structure;Identifier;USUBJID;Unique Subject Identifier;Char;;;;;Req;XX.USUBJID
ADaM OCCDS v1.1;Occurrence Data Structure;Identifier;SUBJID;Subject Identifier for the Study;Char;;;;;Perm;ADSL.SUBJID
ADaM OCCDS v1.1;Occurrence Data Structure;Identifier;SITEID;Study Site Identifier;Char;;;;;Perm;ADSL.SITEID
ADaM OCCDS v1.1;Occurrence Data Structure;Row Identifier;--SEQ;Sequence Number;Num;;;;;Cond;XX.--SEQ \n Identifies the sequence number in SDTM domain XX that is the source for this row. This variable would be copied unchanged from the SDTM domain XX. Required for traceability back to SDTM when rows in the dataset are created from a single SDTM domain. This may be missing for derived rows. \n For SubClass ADVERSE EVENT, use AESEQ, copied from SDTM AE.AESEQ.
ADaM OCCDS v1.1;Occurrence Data Structure;Row Identifier;SRCDOM;Source Data;Char;;;;;Perm;Identifies the name of the domain or dataset that is the source for this row. If the source data is a supplemental qualifier in SDTM, this variable will contain the value of RDOMAIN in SUPP-- or SUPPQUAL. Used when rows in the OCCDS dataset are from multiple SDTM domains or from one or more ADaM datasets. Not to be used in conjunction with --SEQ. This may be missing for derived rows. \n For SubClass ADVERSE EVENT, AESEQ is used rather than SRCDOM and SRCSEQ.
ADaM OCCDS v1.1;Occurrence Data Structure;Row Identifier;SRCSEQ;Source Sequence Number;Num;;;;;Perm;Identifies the sequence number that is the source for this row. If SRCDOM is a SUPPQUAL, then this variable will contain the sequence number of the relevant related domain record. Used when rows in the OCCDS dataset are from multiple SDTM domains or from one or more ADaM datasets. Not to be used in conjunction with --SEQ. This may be missing for derived rows. \n For SubClass ADVERSE EVENT, AESEQ is used rather than SRCDOM and SRCSEQ.
ADaM OCCDS v1.1;Occurrence Data Structure;Row Identifier;ASEQ;Analysis Sequence Number;Num;;;;;Perm;Sequence number given to ensure uniqueness of subject records within an ADaM dataset. \n ASEQ is useful for traceability when the OCCDS dataset is used as input to another ADaM dataset and the --SEQ variable is not included or unique. ASEQ is described in more detail in ADaMIG v1.2, Section 3.3.1, Identifier Variables for BDS Datasets.
ADaM OCCDS v1.1;Occurrence Data Structure;MedDRA Dictionary Coding;--TERM;Reported Term;Char;;;;;Req;Copied from XX.--TERM \n This variable label differs depending on the SDTM domain. See SDTM v1.7 Section 2.2.2, The Events Observation Class, and SDTMIG v3.3 Section 6.2, Models for Events Domains, for details.
ADaM OCCDS v1.1;Occurrence Data Structure;MedDRA Dictionary Coding;--DECOD;Dictionary-Derived Term;Char;;;MedDRA;;Cond;Copied from XX.--DECOD \n This variable is typically one of the primary variables used in an analysis and would be brought in from the SDTM domain. Equivalent to the MedDRA PT. All other SDTM domain variables and supplemental qualifiers needed for analysis or traceability should also be included. Include the dictionary version in the metadata. \n Conditional on whether coded and used for analysis. Required for adverse event data.
ADaM OCCDS v1.1;Occurrence Data Structure;MedDRA Dictionary Coding;--BODSYS;Body System or Organ Class;Char;;;MedDRA;;Cond;Copied from XX.--BODSYS \n Include the dictionary version in the metadata. \n Conditional on whether coded and used for analysis. Required for adverse event data.
ADaM OCCDS v1.1;Occurrence Data Structure;MedDRA Dictionary Coding;--BDSYCD;Body System or Organ Class Code;Num;;;MedDRA;;Perm;Copied from XX.--BDSYCD or the supplemental qualifier \n This would be copied from the SDTM domain XX or supplemental qualifier dataset. Include the dictionary version in the metadata.
ADaM OCCDS v1.1;Occurrence Data Structure;MedDRA Dictionary Coding;--LLT;Lowest Level Term;Char;;;MedDRA;;Cond;Copied from XX.-- LLT or the supplemental qualifier \n Include the dictionary version in the metadata. \n Conditional on whether coded and used for analysis.
ADaM OCCDS v1.1;Occurrence Data Structure;MedDRA Dictionary Coding;--LLTCD;Lowest Level Term Code;Num;;;MedDRA;;Perm;Copied from XX.--LLTCD or the supplemental qualifier \n Include the dictionary version in the metadata.
ADaM OCCDS v1.1;Occurrence Data Structure;MedDRA Dictionary Coding;--PTCD;Preferred Term Code;Num;;;MedDRA;;Perm;Copied from XX.--PTCD or the supplemental qualifier \n Include the dictionary version in the metadata.
ADaM OCCDS v1.1;Occurrence Data Structure;MedDRA Dictionary Coding;--HLT;High Level Term;Char;;;MedDRA;;Cond;Copied from XX.--HLT or the supplemental qualifier \n Include the dictionary version in the metadata. \n Conditional on whether used for analysis.
ADaM OCCDS v1.1;Occurrence Data Structure;MedDRA Dictionary Coding;--HLTCD;High Level Term Code;Num;;;MedDRA;;Perm;Copied from XX.--HLTCD or the supplemental qualifier \n Include the dictionary version in the metadata.
ADaM OCCDS v1.1;Occurrence Data Structure;MedDRA Dictionary Coding;--HLGT;High Level Group Term;Char;;;MedDRA;;Cond;Copied from XX.--HLGT or the supplemental qualifier \n Include the dictionary version in the metadata. \n Conditional on whether used for analysis.
ADaM OCCDS v1.1;Occurrence Data Structure;MedDRA Dictionary Coding;--HLGTCD;High Level Group Term Code;Num;;;MedDRA;;Perm;Copied from XX.--HLGTCD or the supplemental qualifier \n Include the dictionary version in the metadata.
ADaM OCCDS v1.1;Occurrence Data Structure;MedDRA Dictionary Coding;--SOC;Primary System Organ Class;Char;;;MedDRA;;Cond;Copied from XX.--SOC or the supplemental qualifier \n Include the dictionary version in the metadata. \n Conditional on whether a secondary SOC was used for analysis.
ADaM OCCDS v1.1;Occurrence Data Structure;MedDRA Dictionary Coding;--SOCCD;Primary System Organ Class Code;Num;;;MedDRA;;Perm;Copied from XX.--SOCCD or the supplemental qualifier \n Include the dictionary version in the metadata.
ADaM OCCDS v1.1;Occurrence Data Structure;WHO Drug Dictionary Coding;CMTRT;Reported Name of Drug, Med, or Therapy;Char;;;;;Req;CM.CMTRT
ADaM OCCDS v1.1;Occurrence Data Structure;WHO Drug Dictionary Coding;CMDECOD;Standardized Medication Name;Char;;;WHO Drug;;Cond;CM.CMDECOD \n This is typically one of the primary variables used in CM analysis and would be copied from the SDTM CM domain. Include the dictionary version in the variable metadata. \n Conditional on whether coded and used for analysis.
ADaM OCCDS v1.1;Occurrence Data Structure;WHO Drug Dictionary Coding;CMCLAS;Medication Class;Char;;;;;Perm;CM.CMCLAS \n Include the dictionary version in the metadata.
ADaM OCCDS v1.1;Occurrence Data Structure;WHO Drug Dictionary Coding;CMCLASCD;Medication Class Code;Char;;;;;Perm;CM.CMCLASCD \n Include the dictionary version in the metadata.
ADaM OCCDS v1.1;Occurrence Data Structure;WHO Drug Dictionary Coding;ATCy;ATC Level y Text;Char;;;WHO Drug;;Cond;Corresponds to the ATC Level Text for WHO Drug. Include the dictionary version in the variable metadata. \n Conditional, based on analysis at multiple levels (y)
ADaM OCCDS v1.1;Occurrence Data Structure;WHO Drug Dictionary Coding;ATCyCD;ATC Level y Code;Char;;;WHO Drug;;Cond;Corresponds to the ATC Level Code for WHO Drug. Include the dictionary version in the variable metadata. \n Conditional, based on analysis at multiple levels (y)
ADaM OCCDS v1.1;Occurrence Data Structure;Other Categorization;--CAT;Category;Char;;;;;Perm;Copied from XX.--CAT \n This variable label differs depending on the SDTM domain. See SDTM v1.7 Section 2.2, The General Observation Classes, and SDTMIG v3.3 Section 6, Domain Models Based on the General Observation Classes, for details.
ADaM OCCDS v1.1;Occurrence Data Structure;Other Categorization;--SCAT;Subcategory;Char;;;;;Perm;Copied from XX.--SCAT \n This variable label differs depending on the SDTM domain. See SDTM v1.7 Section 2.2, The General Observation Classes, and SDTMIG v3.3 Section 6, Domain Models Based on the General Observation Classes, for details.
ADaM OCCDS v1.1;Occurrence Data Structure;Other Categorization;ACATy;Analysis Category y;Char;;;;;Perm;Category used in analysis. May be derived from --CAT and/or --SCAT. Examples include records of special interest like prohibited medications, concomitant medications taken during an infusion reaction, growth factors, antimicrobial medications, and other such categories not defined elsewhere or present in SDTM domains.
ADaM OCCDS v1.1;Occurrence Data Structure;Timing;--STDTC;Start Date/Time of Observation;Char;;;ISO 8601;;Cond;Copied from XX.-STDTC \n Conditional on whether start date is pertinent for study and is populated in SDTM \n This variable label differs depending on the SDTM domain. See SDTM v1.7 Section 2.2.5, Timing Variables for All Classes, and SDTMIG v3.3 Section 6, Domain Models Based on the General Observation Classes for details.
ADaM OCCDS v1.1;Occurrence Data Structure;Timing;ASTDT;Analysis Start Date;Num;;;;;Cond;Created from converting XX.--STDTC from character ISO 8601 format to numeric date format, applying imputation rules if specified in the statistical analysis plan (SAP) or metadata \n Conditional on whether start date is pertinent for study and is populated in SDTM
ADaM OCCDS v1.1;Occurrence Data Structure;Timing;ASTTM;Analysis Start Time;Num;;;;;Cond;Created from converting XX.--STDTC from character ISO 8601 format to numeric time format, applying imputation rules if specified in the SAP or metadata \n Conditional on whether start time is pertinent for study and is populated in SDTM
ADaM OCCDS v1.1;Occurrence Data Structure;Timing;ASTDTM;Analysis Start Datetime;Num;;;;;Cond;Created from converting XX.--STDTC from character ISO 8601 format to numeric datetime format, applying imputation rules if specified in the SAP or metadata \n Conditional on whether start datetime is pertinent for study and is populated in SDTM
ADaM OCCDS v1.1;Occurrence Data Structure;Timing;ASTDTF;Analysis Start Date Imputation Flag;Char;C81223;DATEFL;;;Cond;The level of imputation of analysis start date. Imputation flags are described in ADaMIG v1.2 Section 3.1.3, Date and Time Imputation Flag Variables. \n Conditional on whether ASTDT (or the date part of ASTDTM) was imputed
ADaM OCCDS v1.1;Occurrence Data Structure;Timing;ASTTMF;Analysis Start Time Imputation Flag;Char;C81226;TIMEFL;;;Cond;The level of imputation of analysis start time. Imputation flags are described in ADaMIG v1.2 Section 3.1.3, Date and Time Imputation Flag Variables. \n Conditional on whether ASTTM (or the time part of ASTDTM) was imputed
ADaM OCCDS v1.1;Occurrence Data Structure;Timing;--ENDTC;End Date/Time of Observation;Char;;;ISO 8601;;Cond;Copied from XX.--ENDTC \n Conditional on whether end date is pertinent for study and is populated in SDTM \n This variable label differs depending on the SDTM domain. See SDTM v1.7 Section 2.2.5, Timing Variables for All Classes, and SDTMIG v3.3 Section 6, Domain Models Based on the General Observation Classes, for details.
ADaM OCCDS v1.1;Occurrence Data Structure;Timing;AENDT;Analysis End Date;Num;;;;;Cond;Created from converting XX.--ENDTC from character ISO 8601 format to numeric date format, applying imputation rules if specified in the SAP or metadata \n Conditional on whether end date is pertinent for study and is populated in SDTM
ADaM OCCDS v1.1;Occurrence Data Structure;Timing;AENTM;Analysis End Time;Num;;;;;Cond;Created from converting XX.--ENDTC from character ISO 8601 format to numeric time format, applying imputation rules if specified in the SAP or metadata \n Conditional on whether end time is pertinent for study and is populated in SDTM
ADaM OCCDS v1.1;Occurrence Data Structure;Timing;AENDTM;Analysis End Datetime;Num;;;;;Cond;Created from converting XX.--ENDTC from character ISO 8601 format to numeric datetime format, applying imputation rules if specified in the SAP or metadata \n Conditional on whether end datetime is pertinent for study and is populated in SDTM
ADaM OCCDS v1.1;Occurrence Data Structure;Timing;AENDTF;Analysis End Date Imputation Flag;Char;C81223;DATEFL;;;Cond;The level of imputation of analysis end date. Imputation flags are described in the ADaMIG v1.2 Section 3.1.3, Date and Time Imputation Flag Variables. \n Conditional on whether AENDT (or the date part of AENDTM) was imputed
ADaM OCCDS v1.1;Occurrence Data Structure;Timing;AENTMF;Analysis End Time Imputation Flag;Char;C81226;TIMEFL;;;Cond;The level of imputation of analysis end time. Imputation flags are described in the ADaMIG v1.2 Section 3.1.3, Date and Time Imputation Flag Variables. \n Conditional on whether AENTM (or the date part of AENDTM) was imputed
ADaM OCCDS v1.1;Occurrence Data Structure;Timing;ASTDY;Analysis Start Relative Day;Num;;;;;Cond;The number of days from an anchor date (not necessarily DM.RFSTDTC) to ASTDT \n Example derivation: \n ASTDT - ADSL.TRTSDT + 1 if ASTDT >= ADSL.TRTSDT, else ASTDT - ADSL.TRTSDT if ASTDT< ADSL.TRTSDT \n This variable may instead be copied from --STDY. \n Conditional on whether analysis start relative day is pertinent to the study
ADaM OCCDS v1.1;Occurrence Data Structure;Timing;--STDY;Study Day of Start of Observation*;Num;;;;;Perm;Copied from XX.--STDY \n ASTDY may differ from --STDY due to date imputation and the option in ADaM to use a reference date other than SDTM's RFSTDTC. Including XX.--STDY in addition to ASTDY adds traceability. \n For SubClass ADVERSE EVENT, conditional on whether the AESTDY variable is in the SDTM AE dataset
ADaM OCCDS v1.1;Occurrence Data Structure;Timing;AENDY;Analysis End Relative Day;Num;;;;;Perm;The number of days from an anchor date (not necessarily DM.RFSTDTC) to AENDT \n Example derivation: \n AENDT - ADSL.TRTSDT + 1 if AENDT >= ADSL.TRTSDT, else AENDT - ADSL.TRTSDT if AENDT < ADSL.TRTSDT \n This variable may instead be copied from --ENDY.
ADaM OCCDS v1.1;Occurrence Data Structure;Timing;--ENDY;Study Day of End of Observation*;Num;;;;;Perm;Copied from XX.--ENDY \n AENDY may differ from --ENDY due to date imputation and the option in ADaM to use a reference date other than SDTM's RFSTDTC. Including XX.--ENDY in addition to AENDY adds traceability. \n For SubClass ADVERSE EVENT, conditional on whether the AEENDY variable is in the SDTM AE dataset
ADaM OCCDS v1.1;Occurrence Data Structure;Timing;ADURN;Analysis Duration (N);Num;;;;;Perm;Derive from ASTDT (or ASTDTM) and AENDT (or AENDTM).
ADaM OCCDS v1.1;Occurrence Data Structure;Timing;ADURU;Analysis Duration Units;Char;C71620;UNIT;;;Cond;Conditional on whether ADURN is included
ADaM OCCDS v1.1;Occurrence Data Structure;Timing;--DUR;Duration of XX;Char;;;ISO 8601;;Perm;Copied from XX.--DUR \n Because --DUR is a collected field and ADURN is derived, the values will often differ. Including XX.--DUR in addition to ADURN adds traceability. \n For SubClass ADVERSE EVENT, conditional on whether the AEDUR variable is in the SDTM AE dataset
ADaM OCCDS v1.1;Occurrence Data Structure;Timing;APERIOD;Period;Num;;;;;Perm;APERIOD is a record-level timing variable that represents the analysis period within the study associated with the record for analysis purposes. The value of APERIOD (if populated) must be one of the xx values found in the ADSL TRTxxP variables. See ADaMIG v1.2 Section 3.3.3, Timing Variables for BDS variables for more information on this variable. \n For SubClass ADVERSE EVENT, conditional on whether multiple analysis periods are defined for the study
ADaM OCCDS v1.1;Occurrence Data Structure;Timing;APERIODC;Period (C);Char;;;;;Perm;Text characterizing to which period the record belongs. One-to-one map to APERIOD.
ADaM OCCDS v1.1;Occurrence Data Structure;Timing;APHASE;Phase;Char;;;;;Perm;APHASE is a categorization of timing within a study, for example a higher-level categorization of APERIOD or an analysis epoch. For example, APHASE could describe spans of time for SCREENING, ON TREATMENT, and FOLLOW-UP. See the ADaM Implementation Guide v1.2 for more information on this variable.
ADaM OCCDS v1.1;Occurrence Data Structure;SDTM Indicator;--OCCUR;XX Occurrence;Char;C66742;NY;;;Cond;Copied from XX.--OCCUR \n Conditional on whether this content is pertinent for analysis and is populated in SDTM \n SDTM does not allow variable AEOCCUR, so this variable is not available to include in ADaM.
ADaM OCCDS v1.1;Occurrence Data Structure;SDTM Indicator;--PRESP;XX Pre-Specified;Char;C66742;NY;;;Cond;Copied from XX.--PRESP \n Conditional on whether this content is pertinent for analysis and is populated in SDTM
ADaM OCCDS v1.1;Occurrence Data Structure;Indicator;ANLzzFL;Analysis Flag zz;Char;;;;Y;Cond;"The ANLzzFL flag is useful in many circumstances; an example is when more than 1 coding path is included for analysis, in which case separate analysis flags could be used to denote primary coding path or the records used for analysis from each coding path. A codelist of Y, N, null may be used as described in ADaMIG v1.2 Section 3.3.8, Indicator Variables for BDS Datasets. \n This variable is conditional on whether analysis records flags are needed for analysis."
ADaM OCCDS v1.1;Occurrence Data Structure;Adverse Events Indicator;TRTEMFL;Treatment Emergent Analysis Flag;Char;;;;Y;Cond;"Treatment-emergent flag as defined for analysis \n Example derivation: \n If ADSL.TRTSDT<=ASTDT<=ADSL.TRTEDT + x days then TRTEMFL=""Y"" \n The number x in this derivation is defined by the producer and often incorporates the known half-life of the drug. \n For datasets other than SubClass ADVERSE EVENT, this variable is conditional on whether the concept of treatment emergent is a key feature of the analysis."
ADaM OCCDS v1.1;Occurrence Data Structure;Adverse Events Indicator;TREMxxFL;Treatment Emergent Period xx Flag;Char;;;;Y;Cond;This variable is required if there are multiple periods where treatment emergence is a key feature of the analysis for each period. \n If TREMxxFL is included, TRTEMFL is defined as the overall treatment-emergent flag.
ADaM OCCDS v1.1;Occurrence Data Structure;Adverse Events Indicator;TRTEMwFL;Treatment Emergent Analysis w Flag;Char;;;;Y;Perm;This variable is used if there are other analysis needs (e.g., different cut-offs) where treatment emergence is a key feature of the analysis. \n If TREMwFL is included, TRTEMFL is defined as the overall treatment-emergent flag.
ADaM OCCDS v1.1;Occurrence Data Structure;Adverse Events Indicator;AETRTEM;Treatment Emergent Flag;Char;C66742;NY;;;Perm;"Treatment-emergent flag from SDTM, if available. See SDTMIG v3.3, Appendix C2, Supplemental Qualifiers Name Codes, for more information. \n Derivation: \n SUPPAE.QVAL where QNAM=""AETRTEM"" \n TRTEMFL may differ from AETRTEM due to different definitions, date imputation, and other analysis rules. Including AETRTEM in addition to TRTEMFL will add traceability. \n For SubClass ADVERSE EVENT, conditional on whether the AETRTEM variable is in the SDTM AE dataset and populated"
ADaM OCCDS v1.1;Occurrence Data Structure;Concomitant Medications Indicator;ONTRTFL;On Treatment Record Flag;Char;;;;Y;Cond;"Character indicator of whether the observation occurred while the subject was on treatment. A codelist of Y, N, null may be used as described in ADaMIG Section 3.3.8, Indicator Variables for BDS Datasets. \n Example derivation: \n If ADSL.TRTSDT <= ASTDT <= ADSL.TRTEDT then ONTRTFL = ""Y"" \n This variable is conditional on whether the concept of on treatment is a feature of the study and used in analysis."
ADaM OCCDS v1.1;Occurrence Data Structure;Concomitant Medications Indicator;ONTRxxFL;On Treatment Period xx Flag;Char;;;;Y;Perm;This variable is used if there are multiple periods where on treatment is a key feature of the analysis for each period. \n If ONTRxxFL is included, ONTRTFL is defined as the overall on-treatment flag.
ADaM OCCDS v1.1;Occurrence Data Structure;Concomitant Medications Indicator;ONTRTwFL;On Treatment Record w Flag;Char;;;;Y;Perm;This variable is used if there are other analysis needs (e.g., different cut-offs) where on treatment is a key feature of the analysis. \n If ONTRTwFL is included, ONTRTFL is defined as the overall on-treatment flag.
ADaM OCCDS v1.1;Occurrence Data Structure;Adverse Events and Concomitant Medications Indicator;PREFL;Pre-treatment Flag;Char;;;;Y;Cond;"Character indicator of whether the observation occurred before the subject started treatment \n Example derivation: \n If ASTDT < ADSL.TRTSDT then PREFL=""Y"" \n This variable is conditional on whether the concept of pre-treatment is a feature of the study and used in analysis."
ADaM OCCDS v1.1;Occurrence Data Structure;Adverse Events and Concomitant Medications Indicator;FUPFL;Follow-up Flag;Char;;;;Y;Cond;"Character indicator of whether the observation occurred while the subject was on follow-up \n Example derivation: \n If ASTDT > ADSL.TRTEDT then FUPFL=""Y"" \n This variable is conditional on whether the concept of follow-up is a feature of the study and used in analysis."
ADaM OCCDS v1.1;Occurrence Data Structure;Occurrence Flag;AOCCFL;1st Occurrence within Subject Flag;Char;;;;Y;Perm;Character indicator for the first occurrence of any event/intervention/finding within the subject \n Example derivation: Sort the data in the required order and flag the first treatment emergent record for each subject.
ADaM OCCDS v1.1;Occurrence Data Structure;Occurrence Flag;AOCCPFL;1st Occurrence of Preferred Term Flag;Char;;;;Y;Perm;Character indicator for the first occurrence of the preferred term within the subject \n Example derivation: Sort the data in the required order and flag the first treatment emergent record for each --DECOD for each subject.
ADaM OCCDS v1.1;Occurrence Data Structure;Occurrence Flag;AOCCIFL;1st Max Sev./Int. Occurrence Flag;Char;;;;Y;Perm;Character indicator for the first occurrence of the event/intervention/finding with the maximum severity/intensity within the subject \n Example derivation: Sort the data in the required order and flag the first treatment emergent record for maximum severity for each subject.
ADaM OCCDS v1.1;Occurrence Data Structure;Occurrence Flag;AOCCPIFL;1st Max Sev./Int. Occur Within PT Flag;Char;;;;Y;Perm;Character indicator for the first occurrence of the maximum severity/intensity within the subject and preferred term \n Example derivation: Sort the data in the required order and flag the first treatment emergent record for maximum severity within preferred term for each subject.
ADaM OCCDS v1.1;Occurrence Data Structure;Occurrence Flag;AOCCzzFL;1st Occurrence of ...;Char;;;;Y;Perm;Additional flag variables as needed for analysis. Derivation rules for these flags need to be described in the metadata.
ADaM OCCDS v1.1;Occurrence Data Structure;MedDRA Occurrence Flag;AOCCSFL;1st Occurrence of SOC Flag;Char;;;;Y;Perm;Character indicator for the first occurrence of the system organ class within the subject \n Example derivation: Sort the data in the required order and flag the first treatment-emergent record for each body system for each subject.
ADaM OCCDS v1.1;Occurrence Data Structure;MedDRA Occurrence Flag;AOCCSIFL;1st Max Sev./Int. Occur Within SOC Flag;Char;;;;Y;Perm;Character indicator for the first occurrence of the maximum severity/intensity within the subject and system organ class \n Example derivation: Sort the data in the required order and flag the first treatment-emergent record for maximum severity within body system for each subject.
ADaM OCCDS v1.1;Occurrence Data Structure;Treatment/Dose;DOSEON;Treatment Dose at Record Start;Num;;;;;Perm;Dose received at the point in time of the record start date \n Example derivation: \n Obtained from EX.EXDOSE where --STDTC falls between the values of EX.EXSTDTC and EX.EXENDTC
ADaM OCCDS v1.1;Occurrence Data Structure;Treatment/Dose;DOSCUMA;Cumulative Actual Treatment Dose;Num;;;;;Perm;Cumulative actual study drug dosage at the point in time of the record start date \n
ADaM OCCDS v1.1;Occurrence Data Structure;Treatment/Dose;DOSEU;Treatment Dose Units;Char;C71620;UNIT;;;Cond;The units associated with DOSEON and/or DOSCUMA. Conditional on whether DOSEON and/or DOSCUMA are included.
ADaM OCCDS v1.1;Occurrence Data Structure;Adverse Event Descriptive;--SER;Serious Event;Char;C66742;NY;;;Perm;XX.--SER
ADaM OCCDS v1.1;Occurrence Data Structure;Adverse Event Descriptive;--SEV;Severity/Intensity;Char;"C66769; C165643";"AESEV; SEVRS";;;Perm;XX.--SEV \n For SubClass ADVERSE EVENT, conditional on whether the --SEV variable is in the SDTM AE dataset. Note that either --SEV or --TOXGR should be included in SDTM.
ADaM OCCDS v1.1;Occurrence Data Structure;Adverse Event Descriptive;--SEVN;Severity/Intensity (N);Num;;;;"1; 2; 3";Perm;Code XX.--SEV to numeric \n Low intensity should correspond to low value
ADaM OCCDS v1.1;Occurrence Data Structure;Adverse Event Descriptive;ASEV;Analysis Severity/Intensity;Char;;;;;Perm;Apply imputation rules for missing severity of adverse events as specified in the SAP or metadata. May change case of text, such as from all uppercase in --SEV to mixed case in ASEV.
ADaM OCCDS v1.1;Occurrence Data Structure;Adverse Event Descriptive;ASEVN;Analysis Severity/Intensity (N);Num;;;;"1; 2; 3";Perm;Code ASEV to numeric \n Low intensity should correspond to low value
ADaM OCCDS v1.1;Occurrence Data Structure;Adverse Event Descriptive;SEVGRy;Pooled Severity Group y;Char;;;;;Perm;Pooled grouping of AE severity for analysis (e.g., mild/moderate, severe)
ADaM OCCDS v1.1;Occurrence Data Structure;Adverse Event Descriptive;SEVGRyN;Pooled Severity Group y (N);Num;;;;;Perm;Code SEVGRy to numeric \n Low intensity should correspond to low value
ADaM OCCDS v1.1;Occurrence Data Structure;Adverse Event Descriptive;--REL;Causality;Char;;;;;Perm;XX.--REL
ADaM OCCDS v1.1;Occurrence Data Structure;Adverse Event Descriptive;--RELN;Causality (N);Num;;;;;Perm;Code XX.--REL to numeric \n Low relation should correspond to low value
ADaM OCCDS v1.1;Occurrence Data Structure;Adverse Event Descriptive;AREL;Analysis Causality;Char;;;;;Perm;Apply imputation rules for missing causality of study drug as specified in the SAP or metadata. May change case of text, such as from all uppercase in --REL to mixed case in AREL.
ADaM OCCDS v1.1;Occurrence Data Structure;Adverse Event Descriptive;ARELN;Analysis Causality (N);Num;;;;;Perm;Code AREL to numeric
ADaM OCCDS v1.1;Occurrence Data Structure;Adverse Event Descriptive;RELGRy;Pooled Causality Group y;Char;;;;;Perm;Pooled grouping of causality of study drug for analysis (e.g. related, not related)
ADaM OCCDS v1.1;Occurrence Data Structure;Adverse Event Descriptive;RELGRyN;Pooled Causality Group y (N);Num;;;;;Perm;Code of RELGRy to numeric \n Low relation should correspond to low value
ADaM OCCDS v1.1;Occurrence Data Structure;Adverse Event Descriptive;--TOXGR;Standard Toxicity Grade;Char;;;;;Perm;XX.--TOXGR \n For SubClass ADVERSE EVENT, conditional on whether the --TOXGR variable is in the SDTM AE dataset. Note that either --SEV or --TOXGR should be included in SDTM.
ADaM OCCDS v1.1;Occurrence Data Structure;Adverse Event Descriptive;--TOXGRN;Standard Toxicity Grade (N);Num;;;;;Perm;Code --TOXGR to numeric \n Low toxicity should correspond to low value
ADaM OCCDS v1.1;Occurrence Data Structure;Adverse Event Descriptive;ATOXGR;Analysis Toxicity Grade;Char;;;;;Perm;Toxicity grade for analysis. May be based on --TOXGR or an imputed or assigned value. May change case of text, such as from all uppercase in --TOXGR to mixed case in ATOXGR.
ADaM OCCDS v1.1;Occurrence Data Structure;Adverse Event Descriptive;ATOXGRN;Analysis Toxicity Grade (N);Num;;;;;Perm;Code ATOXGR to numeric \n Low toxicity should correspond to low value
ADaM OCCDS v1.1;Occurrence Data Structure;Adverse Event Descriptive;TOXGGRy;Pooled Toxicity Grade Group y;Char;;;;;Perm;Pooled grouping of toxicity grade for analysis
ADaM OCCDS v1.1;Occurrence Data Structure;Adverse Event Descriptive;TOXGGRyN;Pooled Toxicity Grade Group y (N);Num;;;;;Perm;Code of TOXGGRy to numeric \n Low toxicity should correspond to low value
ADaM OCCDS v1.1;Occurrence Data Structure;Adverse Event Descriptive;--ACN;Action Taken with Study Treatment;Char;C66767;ACN;;;Perm;XX.--ACN \n Required if XX.--ACN is present and populated
ADaM OCCDS v1.1;Occurrence Data Structure;Concomitant Medications Descriptive;--STAT;Completion Status;Char;;;;;Perm;XX.--STAT
ADaM OCCDS v1.1;Occurrence Data Structure;Concomitant Medications Descriptive;--INDC;Indication;Char;;;;;Perm;XX.--INDC
ADaM OCCDS v1.1;Occurrence Data Structure;Concomitant Medications Descriptive;--DOSE;Dose per Administration;Num;;;;;Perm;XX.--DOSE
ADaM OCCDS v1.1;Occurrence Data Structure;Concomitant Medications Descriptive;--DOSFRM;Dose Form;Char;;;;;Perm;XX.--DOSFRM
ADaM OCCDS v1.1;Occurrence Data Structure;Concomitant Medications Descriptive;--DOSRGM;Intended Dose Regimen;Char;;;;;Perm;XX.--DOSRGM
ADaM OCCDS v1.1;Occurrence Data Structure;Concomitant Medications Descriptive;--ROUTE;Route of Administration;Char;;;;;Perm;XX.--ROUTE
ADaM OCCDS v1.1;Occurrence Data Structure;Standardized MedDRA Query;SMQzzNAM;SMQ zz Name;Char;;;;;Cond;The Standardized MedDRA Query name. Would be blank for terms that are not in the SMQ. Therefore this variable could be blank for all records if no terms within the study were included in the SMQ. \n Conditional on whether SMQ analysis is done
ADaM OCCDS v1.1;Occurrence Data Structure;Standardized MedDRA Query;SMQzzCD;SMQ zz Code;Num;;;;;Perm;The standardized MedDRA queries number code
ADaM OCCDS v1.1;Occurrence Data Structure;Standardized MedDRA Query;SMQzzSC;SMQ zz Scope;Char;;;;"BROAD; NARROW";Cond;The search strategy for SMQs can be narrow or broad. The preferred terms that are narrow in scope have high specificity for identifying events of interest, whereas the broad terms have high sensitivity. By definition, all narrow terms are also considered within the broad scope. Therefore, to summarize all broad terms, terms with either narrow or broad would be considered. Will be null for terms that do not meet the criteria. \n Conditional on whether SMQ analysis is done
ADaM OCCDS v1.1;Occurrence Data Structure;Standardized MedDRA Query;SMQzzSCN;SMQ zz Scope (N);Num;;;;"1; 2";Perm;Will be null for terms that do not meet the criteria
ADaM OCCDS v1.1;Occurrence Data Structure;Standardized MedDRA Query;CQzzNAM;Customized Query zz Name;Char;;;;;Cond;"The CQ name or name of the adverse event of special interest category based on a grouping of terms. Would be blank for terms that are not in the CQ. \n Conditional on whether CQ analysis is done \n Examples: ""DERMATOLOGICAL EVENTS"" ""CARDIAC EVENTS"", ""IARS (INFUSION ASSOCIATED REACTIONS)"""
ADaM OCCDS v1.1;Occurrence Data Structure;Standardized MedDRA Query;ADECODy;Analysis Dictionary-Derived Term y;Char;;;;;Perm;The terms used for the analysis when combining multiple customized query or multiple standardized MedDRA queries and the original MedDRA dictionary terms under 1 variable \n Although designed for MedDRA queries, this variable could be used for other OCCDS analysis needs.
ADaM OCCDS v1.1;Occurrence Data Structure;Original or Prior WHO Drug Coding;DECDORGw;Standardized Med Name in Orig Dict w;Char;;;WHODRUG;;Perm;Original standardized medication name of CM.CMTRT using WHO Drug version X.X
ADaM OCCDS v1.1;Occurrence Data Structure;Original or Prior WHO Drug Coding;CLASORGw;Medication Class in Orig Dictionary w;Char;;;WHODRUG;;Perm;Original medication class of CM.CMTRT using WHO Drug version X.X
ADaM OCCDS v1.1;Occurrence Data Structure;Original or Prior WHO Drug Coding;CLCDORGw;Medication Class Code in Orig Dict w;Char;;;WHODRUG;;Perm;Original medication class code of CM.CMTRT using WHO Drug version X.X
ADaM OCCDS v1.1;Occurrence Data Structure;Original or Prior WHO Drug Coding;ATyCORGw;ATC Level y Code in Orig Dictionary w;Char;;;WHODRUG;;Perm;Original ATC Level y code of CM.CMTRT using WHO Drug version X.X
ADaM OCCDS v1.1;Occurrence Data Structure;Original or Prior WHO Drug Coding;ATyTORGw;ATC Level y Text in Orig Dictionary w;Char;;;WHODRUG;;Perm;Original ATC Level y text of CM.CMTRT using WHO Drug version X.X
ADaM OCCDS v1.1;Occurrence Data Structure;Original or Prior MedDRA Coding;DECDORGw;PT in Original Dictionary w;Char;;;MedDRA;;Perm;Original preferred term coding of XX.--TERM using MedDRA or other dictionary version X.X
ADaM OCCDS v1.1;Occurrence Data Structure;Original or Prior MedDRA Coding;BDSYORGw;SOC in Original Dictionary w;Char;;;MedDRA;;Perm;Original body system coding of XX.--TERM using MedDRA or other dictionary version X.X
ADaM OCCDS v1.1;Occurrence Data Structure;Original or Prior MedDRA Coding;HLGTORGw;HLGT in Original Dictionary w;Char;;;MedDRA;;Perm;Original HLGT coding of XX.--TERM using MedDRA or other dictionary version X.X
ADaM OCCDS v1.1;Occurrence Data Structure;Original or Prior MedDRA Coding;HLTORGw;HLT in Original Dictionary w;Char;;;MedDRA;;Perm;Original HLT coding of XX.--TERM using MedDRA or other dictionary version X.X
ADaM OCCDS v1.1;Occurrence Data Structure;Original or Prior MedDRA Coding;LLTORGw;LLT in Original Dictionary w;Char;;;MedDRA;;Perm;Original LLT coding of XX.--TERM using MedDRA or other dictionary version X.X
ADaM OCCDS v1.1;Occurrence Data Structure;Original or Prior MedDRA Coding;LLTNORGw;LLT Code in Original Dictionary w;Char;;;MedDRA;;Perm;Original LLT code of XX.--TERM using MedDRA or other dictionary version X.X
ADaM OCCDS v1.1;Occurrence Data Structure Adverse Event;Identifier;STUDYID;Study Identifier;Char;;;;;Req;XX.STUDYID
ADaM OCCDS v1.1;Occurrence Data Structure Adverse Event;Identifier;USUBJID;Unique Subject Identifier;Char;;;;;Req;XX.USUBJID
ADaM OCCDS v1.1;Occurrence Data Structure Adverse Event;Identifier;SUBJID;Subject Identifier for the Study;Char;;;;;Perm;ADSL.SUBJID
ADaM OCCDS v1.1;Occurrence Data Structure Adverse Event;Identifier;SITEID;Study Site Identifier;Char;;;;;Perm;ADSL.SITEID
ADaM OCCDS v1.1;Occurrence Data Structure Adverse Event;Row Identifier;--SEQ;Sequence Number;Num;;;;;Req;XX.--SEQ \n Identifies the sequence number in SDTM domain XX that is the source for this row. This variable would be copied unchanged from the SDTM domain XX. Required for traceability back to SDTM when rows in the dataset are created from a single SDTM domain. This may be missing for derived rows. \n For SubClass ADVERSE EVENT, use AESEQ, copied from SDTM AE.AESEQ.
ADaM OCCDS v1.1;Occurrence Data Structure Adverse Event;Row Identifier;SRCDOM;Source Data;Char;;;;;Not used;Identifies the name of the domain or dataset that is the source for this row. If the source data is a supplemental qualifier in SDTM, this variable will contain the value of RDOMAIN in SUPP-- or SUPPQUAL. Used when rows in the OCCDS dataset are from multiple SDTM domains or from one or more ADaM datasets. Not to be used in conjunction with --SEQ. This may be missing for derived rows. \n For SubClass ADVERSE EVENT, AESEQ is used rather than SRCDOM and SRCSEQ.
ADaM OCCDS v1.1;Occurrence Data Structure Adverse Event;Row Identifier;SRCSEQ;Source Sequence Number;Num;;;;;Not used;Identifies the sequence number that is the source for this row. If SRCDOM is a SUPPQUAL, then this variable will contain the sequence number of the relevant related domain record. Used when rows in the OCCDS dataset are from multiple SDTM domains or from one or more ADaM datasets. Not to be used in conjunction with --SEQ. This may be missing for derived rows. \n For SubClass ADVERSE EVENT, AESEQ is used rather than SRCDOM and SRCSEQ.
ADaM OCCDS v1.1;Occurrence Data Structure Adverse Event;Row Identifier;ASEQ;Analysis Sequence Number;Num;;;;;Perm;Sequence number given to ensure uniqueness of subject records within an ADaM dataset. \n ASEQ is useful for traceability when the OCCDS dataset is used as input to another ADaM dataset and the --SEQ variable is not included or unique. ASEQ is described in more detail in ADaMIG v1.2, Section 3.3.1, Identifier Variables for BDS Datasets.
ADaM OCCDS v1.1;Occurrence Data Structure Adverse Event;MedDRA Dictionary Coding;--TERM;Reported Term;Char;;;;;Req;Copied from XX.--TERM \n This variable label differs depending on the SDTM domain. See SDTM v1.7 Section 2.2.2, The Events Observation Class, and SDTMIG v3.3 Section 6.2, Models for Events Domains, for details.
ADaM OCCDS v1.1;Occurrence Data Structure Adverse Event;MedDRA Dictionary Coding;--DECOD;Dictionary-Derived Term;Char;;;MedDRA;;Req;Copied from XX.--DECOD \n This variable is typically one of the primary variables used in an analysis and would be brought in from the SDTM domain. Equivalent to the MedDRA PT. All other SDTM domain variables and supplemental qualifiers needed for analysis or traceability should also be included. Include the dictionary version in the metadata. \n Conditional on whether coded and used for analysis. Required for adverse event data.
ADaM OCCDS v1.1;Occurrence Data Structure Adverse Event;MedDRA Dictionary Coding;--BODSYS;Body System or Organ Class;Char;;;MedDRA;;Req;Copied from XX.--BODSYS \n Include the dictionary version in the metadata. \n Conditional on whether coded and used for analysis. Required for adverse event data.
ADaM OCCDS v1.1;Occurrence Data Structure Adverse Event;MedDRA Dictionary Coding;--BDSYCD;Body System or Organ Class Code;Num;;;MedDRA;;Req;Copied from XX.--BDSYCD or the supplemental qualifier \n This would be copied from the SDTM domain XX or supplemental qualifier dataset. Include the dictionary version in the metadata.
ADaM OCCDS v1.1;Occurrence Data Structure Adverse Event;MedDRA Dictionary Coding;--LLT;Lowest Level Term;Char;;;MedDRA;;Req;Copied from XX.-- LLT or the supplemental qualifier \n Include the dictionary version in the metadata. \n Conditional on whether coded and used for analysis.
ADaM OCCDS v1.1;Occurrence Data Structure Adverse Event;MedDRA Dictionary Coding;--LLTCD;Lowest Level Term Code;Num;;;MedDRA;;Req;Copied from XX.--LLTCD or the supplemental qualifier \n Include the dictionary version in the metadata.
ADaM OCCDS v1.1;Occurrence Data Structure Adverse Event;MedDRA Dictionary Coding;--PTCD;Preferred Term Code;Num;;;MedDRA;;Req;Copied from XX.--PTCD or the supplemental qualifier \n Include the dictionary version in the metadata.
ADaM OCCDS v1.1;Occurrence Data Structure Adverse Event;MedDRA Dictionary Coding;--HLT;High Level Term;Char;;;MedDRA;;Req;Copied from XX.--HLT or the supplemental qualifier \n Include the dictionary version in the metadata. \n Conditional on whether used for analysis.
ADaM OCCDS v1.1;Occurrence Data Structure Adverse Event;MedDRA Dictionary Coding;--HLTCD;High Level Term Code;Num;;;MedDRA;;Req;Copied from XX.--HLTCD or the supplemental qualifier \n Include the dictionary version in the metadata.
ADaM OCCDS v1.1;Occurrence Data Structure Adverse Event;MedDRA Dictionary Coding;--HLGT;High Level Group Term;Char;;;MedDRA;;Req;Copied from XX.--HLGT or the supplemental qualifier \n Include the dictionary version in the metadata. \n Conditional on whether used for analysis.
ADaM OCCDS v1.1;Occurrence Data Structure Adverse Event;MedDRA Dictionary Coding;--HLGTCD;High Level Group Term Code;Num;;;MedDRA;;Req;Copied from XX.--HLGTCD or the supplemental qualifier \n Include the dictionary version in the metadata.
ADaM OCCDS v1.1;Occurrence Data Structure Adverse Event;MedDRA Dictionary Coding;--SOC;Primary System Organ Class;Char;;;MedDRA;;Req;Copied from XX.--SOC or the supplemental qualifier \n Include the dictionary version in the metadata. \n Conditional on whether a secondary SOC was used for analysis.
ADaM OCCDS v1.1;Occurrence Data Structure Adverse Event;MedDRA Dictionary Coding;--SOCCD;Primary System Organ Class Code;Num;;;MedDRA;;Req;Copied from XX.--SOCCD or the supplemental qualifier \n Include the dictionary version in the metadata.
ADaM OCCDS v1.1;Occurrence Data Structure Adverse Event;WHO Drug Dictionary Coding;CMTRT;Reported Name of Drug, Med, or Therapy;Char;;;;;Not Used;CM.CMTRT
ADaM OCCDS v1.1;Occurrence Data Structure Adverse Event;WHO Drug Dictionary Coding;CMDECOD;Standardized Medication Name;Char;;;WHO Drug;;Not Used;CM.CMDECOD \n This is typically one of the primary variables used in CM analysis and would be copied from the SDTM CM domain. Include the dictionary version in the variable metadata. \n Conditional on whether coded and used for analysis.
ADaM OCCDS v1.1;Occurrence Data Structure Adverse Event;WHO Drug Dictionary Coding;CMCLAS;Medication Class;Char;;;;;Not Used;CM.CMCLAS \n Include the dictionary version in the metadata.
ADaM OCCDS v1.1;Occurrence Data Structure Adverse Event;WHO Drug Dictionary Coding;CMCLASCD;Medication Class Code;Char;;;;;Not Used;CM.CMCLASCD \n Include the dictionary version in the metadata.
ADaM OCCDS v1.1;Occurrence Data Structure Adverse Event;WHO Drug Dictionary Coding;ATCy;ATC Level y Text;Char;;;WHO Drug;;Not Used;Corresponds to the ATC Level Text for WHO Drug. Include the dictionary version in the variable metadata. \n Conditional, based on analysis at multiple levels (y)
ADaM OCCDS v1.1;Occurrence Data Structure Adverse Event;WHO Drug Dictionary Coding;ATCyCD;ATC Level y Code;Char;;;WHO Drug;;Not Used;Corresponds to the ATC Level Code for WHO Drug. Include the dictionary version in the variable metadata. \n Conditional, based on analysis at multiple levels (y)
ADaM OCCDS v1.1;Occurrence Data Structure Adverse Event;Other Categorization;--CAT;Category;Char;;;;;Perm;Copied from XX.--CAT \n This variable label differs depending on the SDTM domain. See SDTM v1.7 Section 2.2, The General Observation Classes, and SDTMIG v3.3 Section 6, Domain Models Based on the General Observation Classes, for details.
ADaM OCCDS v1.1;Occurrence Data Structure Adverse Event;Other Categorization;--SCAT;Subcategory;Char;;;;;Perm;Copied from XX.--SCAT \n This variable label differs depending on the SDTM domain. See SDTM v1.7 Section 2.2, The General Observation Classes, and SDTMIG v3.3 Section 6, Domain Models Based on the General Observation Classes, for details.
ADaM OCCDS v1.1;Occurrence Data Structure Adverse Event;Other Categorization;ACATy;Analysis Category y;Char;;;;;Perm;Category used in analysis. May be derived from --CAT and/or --SCAT. Examples include records of special interest like prohibited medications, concomitant medications taken during an infusion reaction, growth factors, antimicrobial medications, and other such categories not defined elsewhere or present in SDTM domains.
ADaM OCCDS v1.1;Occurrence Data Structure Adverse Event;Timing;--STDTC;Start Date/Time of Observation;Char;;;ISO 8601;;Req;Copied from XX.-STDTC \n Conditional on whether start date is pertinent for study and is populated in SDTM \n This variable label differs depending on the SDTM domain. See SDTM v1.7 Section 2.2.5, Timing Variables for All Classes, and SDTMIG v3.3 Section 6, Domain Models Based on the General Observation Classes for details.
ADaM OCCDS v1.1;Occurrence Data Structure Adverse Event;Timing;ASTDT;Analysis Start Date;Num;;;;;Req;Created from converting XX.--STDTC from character ISO 8601 format to numeric date format, applying imputation rules if specified in the statistical analysis plan (SAP) or metadata \n Conditional on whether start date is pertinent for study and is populated in SDTM
ADaM OCCDS v1.1;Occurrence Data Structure Adverse Event;Timing;ASTTM;Analysis Start Time;Num;;;;;Cond;Created from converting XX.--STDTC from character ISO 8601 format to numeric time format, applying imputation rules if specified in the SAP or metadata \n Conditional on whether start time is pertinent for study and is populated in SDTM
ADaM OCCDS v1.1;Occurrence Data Structure Adverse Event;Timing;ASTDTM;Analysis Start Datetime;Num;;;;;Cond;Created from converting XX.--STDTC from character ISO 8601 format to numeric datetime format, applying imputation rules if specified in the SAP or metadata \n Conditional on whether start datetime is pertinent for study and is populated in SDTM
ADaM OCCDS v1.1;Occurrence Data Structure Adverse Event;Timing;ASTDTF;Analysis Start Date Imputation Flag;Char;C81223;DATEFL;;;Cond;The level of imputation of analysis start date. Imputation flags are described in ADaMIG v1.2 Section 3.1.3, Date and Time Imputation Flag Variables. \n Conditional on whether ASTDT (or the date part of ASTDTM) was imputed
ADaM OCCDS v1.1;Occurrence Data Structure Adverse Event;Timing;ASTTMF;Analysis Start Time Imputation Flag;Char;C81226;TIMEFL;;;Cond;The level of imputation of analysis start time. Imputation flags are described in ADaMIG v1.2 Section 3.1.3, Date and Time Imputation Flag Variables. \n Conditional on whether ASTTM (or the time part of ASTDTM) was imputed
ADaM OCCDS v1.1;Occurrence Data Structure Adverse Event;Timing;--ENDTC;End Date/Time of Observation;Char;;;ISO 8601;;Req;Copied from XX.--ENDTC \n Conditional on whether end date is pertinent for study and is populated in SDTM \n This variable label differs depending on the SDTM domain. See SDTM v1.7 Section 2.2.5, Timing Variables for All Classes, and SDTMIG v3.3 Section 6, Domain Models Based on the General Observation Classes, for details.
ADaM OCCDS v1.1;Occurrence Data Structure Adverse Event;Timing;AENDT;Analysis End Date;Num;;;;;Req;Created from converting XX.--ENDTC from character ISO 8601 format to numeric date format, applying imputation rules if specified in the SAP or metadata \n Conditional on whether end date is pertinent for study and is populated in SDTM
ADaM OCCDS v1.1;Occurrence Data Structure Adverse Event;Timing;AENTM;Analysis End Time;Num;;;;;Cond;Created from converting XX.--ENDTC from character ISO 8601 format to numeric time format, applying imputation rules if specified in the SAP or metadata \n Conditional on whether end time is pertinent for study and is populated in SDTM
ADaM OCCDS v1.1;Occurrence Data Structure Adverse Event;Timing;AENDTM;Analysis End Datetime;Num;;;;;Cond;Created from converting XX.--ENDTC from character ISO 8601 format to numeric datetime format, applying imputation rules if specified in the SAP or metadata \n Conditional on whether end datetime is pertinent for study and is populated in SDTM
ADaM OCCDS v1.1;Occurrence Data Structure Adverse Event;Timing;AENDTF;Analysis End Date Imputation Flag;Char;C81223;DATEFL;;;Cond;The level of imputation of analysis end date. Imputation flags are described in the ADaMIG v1.2 Section 3.1.3, Date and Time Imputation Flag Variables. \n Conditional on whether AENDT (or the date part of AENDTM) was imputed
ADaM OCCDS v1.1;Occurrence Data Structure Adverse Event;Timing;AENTMF;Analysis End Time Imputation Flag;Char;C81226;TIMEFL;;;Cond;The level of imputation of analysis end time. Imputation flags are described in the ADaMIG v1.2 Section 3.1.3, Date and Time Imputation Flag Variables. \n Conditional on whether AENTM (or the date part of AENDTM) was imputed
ADaM OCCDS v1.1;Occurrence Data Structure Adverse Event;Timing;ASTDY;Analysis Start Relative Day;Num;;;;;Req;The number of days from an anchor date (not necessarily DM.RFSTDTC) to ASTDT \n Example derivation: \n ASTDT - ADSL.TRTSDT + 1 if ASTDT >= ADSL.TRTSDT, else ASTDT - ADSL.TRTSDT if ASTDT< ADSL.TRTSDT \n This variable may instead be copied from --STDY. \n Conditional on whether analysis start relative day is pertinent to the study
ADaM OCCDS v1.1;Occurrence Data Structure Adverse Event;Timing;--STDY;Study Day of Start of Observation*;Num;;;;;Cond;Copied from XX.--STDY \n ASTDY may differ from --STDY due to date imputation and the option in ADaM to use a reference date other than SDTM's RFSTDTC. Including XX.--STDY in addition to ASTDY adds traceability. \n For SubClass ADVERSE EVENT, conditional on whether the AESTDY variable is in the SDTM AE dataset
ADaM OCCDS v1.1;Occurrence Data Structure Adverse Event;Timing;AENDY;Analysis End Relative Day;Num;;;;;Req;The number of days from an anchor date (not necessarily DM.RFSTDTC) to AENDT \n Example derivation: \n AENDT - ADSL.TRTSDT + 1 if AENDT >= ADSL.TRTSDT, else AENDT - ADSL.TRTSDT if AENDT < ADSL.TRTSDT \n This variable may instead be copied from --ENDY.
ADaM OCCDS v1.1;Occurrence Data Structure Adverse Event;Timing;--ENDY;Study Day of End of Observation*;Num;;;;;Cond;Copied from XX.--ENDY \n AENDY may differ from --ENDY due to date imputation and the option in ADaM to use a reference date other than SDTM's RFSTDTC. Including XX.--ENDY in addition to AENDY adds traceability. \n For SubClass ADVERSE EVENT, conditional on whether the AEENDY variable is in the SDTM AE dataset
ADaM OCCDS v1.1;Occurrence Data Structure Adverse Event;Timing;ADURN;Analysis Duration (N);Num;;;;;Perm;Derive from ASTDT (or ASTDTM) and AENDT (or AENDTM).
ADaM OCCDS v1.1;Occurrence Data Structure Adverse Event;Timing;ADURU;Analysis Duration Units;Char;C71620;UNIT;;;Cond;Conditional on whether ADURN is included
ADaM OCCDS v1.1;Occurrence Data Structure Adverse Event;Timing;--DUR;Duration of XX;Char;;;ISO 8601;;Cond;Copied from XX.--DUR \n Because --DUR is a collected field and ADURN is derived, the values will often differ. Including XX.--DUR in addition to ADURN adds traceability. \n For SubClass ADVERSE EVENT, conditional on whether the AEDUR variable is in the SDTM AE dataset
ADaM OCCDS v1.1;Occurrence Data Structure Adverse Event;Timing;APERIOD;Period;Num;;;;;Cond;APERIOD is a record-level timing variable that represents the analysis period within the study associated with the record for analysis purposes. The value of APERIOD (if populated) must be one of the xx values found in the ADSL TRTxxP variables. See ADaMIG v1.2 Section 3.3.3, Timing Variables for BDS variables for more information on this variable. \n For SubClass ADVERSE EVENT, conditional on whether multiple analysis periods are defined for the study
ADaM OCCDS v1.1;Occurrence Data Structure Adverse Event;Timing;APERIODC;Period (C);Char;;;;;Perm;Text characterizing to which period the record belongs. One-to-one map to APERIOD.
ADaM OCCDS v1.1;Occurrence Data Structure Adverse Event;Timing;APHASE;Phase;Char;;;;;Perm;APHASE is a categorization of timing within a study, for example a higher-level categorization of APERIOD or an analysis epoch. For example, APHASE could describe spans of time for SCREENING, ON TREATMENT, and FOLLOW-UP. See the ADaM Implementation Guide v1.2 for more information on this variable.
ADaM OCCDS v1.1;Occurrence Data Structure Adverse Event;SDTM Indicator;--OCCUR;XX Occurrence;Char;C66742;NY;;;Not used;Copied from XX.--OCCUR \n Conditional on whether this content is pertinent for analysis and is populated in SDTM \n SDTM does not allow variable AEOCCUR, so this variable is not available to include in ADaM.
ADaM OCCDS v1.1;Occurrence Data Structure Adverse Event;SDTM Indicator;--PRESP;XX Pre-Specified;Char;C66742;NY;;;Cond;Copied from XX.--PRESP \n Conditional on whether this content is pertinent for analysis and is populated in SDTM
ADaM OCCDS v1.1;Occurrence Data Structure Adverse Event;Indicator;ANLzzFL;Analysis Flag zz;Char;;;;Y;Cond;"The ANLzzFL flag is useful in many circumstances; an example is when more than 1 coding path is included for analysis, in which case separate analysis flags could be used to denote primary coding path or the records used for analysis from each coding path. A codelist of Y, N, null may be used as described in ADaMIG v1.2 Section 3.3.8, Indicator Variables for BDS Datasets. \n This variable is conditional on whether analysis records flags are needed for analysis."
ADaM OCCDS v1.1;Occurrence Data Structure Adverse Event;Adverse Events Indicator;TRTEMFL;Treatment Emergent Analysis Flag;Char;;;;Y;Req;"Treatment-emergent flag as defined for analysis \n Example derivation: \n If ADSL.TRTSDT<=ASTDT<=ADSL.TRTEDT + x days then TRTEMFL=""Y"" \n The number x in this derivation is defined by the producer and often incorporates the known half-life of the drug. \n For datasets other than SubClass ADVERSE EVENT, this variable is conditional on whether the concept of treatment emergent is a key feature of the analysis."
ADaM OCCDS v1.1;Occurrence Data Structure Adverse Event;Adverse Events Indicator;TREMxxFL;Treatment Emergent Period xx Flag;Char;;;;Y;Cond;This variable is required if there are multiple periods where treatment emergence is a key feature of the analysis for each period. \n If TREMxxFL is included, TRTEMFL is defined as the overall treatment-emergent flag.
ADaM OCCDS v1.1;Occurrence Data Structure Adverse Event;Adverse Events Indicator;TRTEMwFL;Treatment Emergent Analysis w Flag;Char;;;;Y;Perm;This variable is used if there are other analysis needs (e.g., different cut-offs) where treatment emergence is a key feature of the analysis. \n If TREMwFL is included, TRTEMFL is defined as the overall treatment-emergent flag.
ADaM OCCDS v1.1;Occurrence Data Structure Adverse Event;Adverse Events Indicator;AETRTEM;Treatment Emergent Flag;Char;C66742;NY;;;Cond;"Treatment-emergent flag from SDTM, if available. See SDTMIG v3.3, Appendix C2, Supplemental Qualifiers Name Codes, for more information. \n Derivation: \n SUPPAE.QVAL where QNAM=""AETRTEM"" \n TRTEMFL may differ from AETRTEM due to different definitions, date imputation, and other analysis rules. Including AETRTEM in addition to TRTEMFL will add traceability. \n For SubClass ADVERSE EVENT, conditional on whether the AETRTEM variable is in the SDTM AE dataset and populated"
ADaM OCCDS v1.1;Occurrence Data Structure Adverse Event;Concomitant Medications Indicator;ONTRTFL;On Treatment Record Flag;Char;;;;Y;Perm;"Character indicator of whether the observation occurred while the subject was on treatment. A codelist of Y, N, null may be used as described in ADaMIG Section 3.3.8, Indicator Variables for BDS Datasets. \n Example derivation: \n If ADSL.TRTSDT <= ASTDT <= ADSL.TRTEDT then ONTRTFL = ""Y"" \n This variable is conditional on whether the concept of on treatment is a feature of the study and used in analysis."
ADaM OCCDS v1.1;Occurrence Data Structure Adverse Event;Concomitant Medications Indicator;ONTRxxFL;On Treatment Period xx Flag;Char;;;;Y;Perm;This variable is used if there are multiple periods where on treatment is a key feature of the analysis for each period. \n If ONTRxxFL is included, ONTRTFL is defined as the overall on-treatment flag.
ADaM OCCDS v1.1;Occurrence Data Structure Adverse Event;Concomitant Medications Indicator;ONTRTwFL;On Treatment Record w Flag;Char;;;;Y;Perm;This variable is used if there are other analysis needs (e.g., different cut-offs) where on treatment is a key feature of the analysis. \n If ONTRTwFL is included, ONTRTFL is defined as the overall on-treatment flag.
ADaM OCCDS v1.1;Occurrence Data Structure Adverse Event;Adverse Events and Concomitant Medications Indicator;PREFL;Pre-treatment Flag;Char;;;;Y;Cond;"Character indicator of whether the observation occurred before the subject started treatment \n Example derivation: \n If ASTDT < ADSL.TRTSDT then PREFL=""Y"" \n This variable is conditional on whether the concept of pre-treatment is a feature of the study and used in analysis."
ADaM OCCDS v1.1;Occurrence Data Structure Adverse Event;Adverse Events and Concomitant Medications Indicator;FUPFL;Follow-up Flag;Char;;;;Y;Cond;"Character indicator of whether the observation occurred while the subject was on follow-up \n Example derivation: \n If ASTDT > ADSL.TRTEDT then FUPFL=""Y"" \n This variable is conditional on whether the concept of follow-up is a feature of the study and used in analysis."
ADaM OCCDS v1.1;Occurrence Data Structure Adverse Event;Occurrence Flag;AOCCFL;1st Occurrence within Subject Flag;Char;;;;Y;Perm;Character indicator for the first occurrence of any event/intervention/finding within the subject \n Example derivation: Sort the data in the required order and flag the first treatment emergent record for each subject.
ADaM OCCDS v1.1;Occurrence Data Structure Adverse Event;Occurrence Flag;AOCCPFL;1st Occurrence of Preferred Term Flag;Char;;;;Y;Perm;Character indicator for the first occurrence of the preferred term within the subject \n Example derivation: Sort the data in the required order and flag the first treatment emergent record for each --DECOD for each subject.
ADaM OCCDS v1.1;Occurrence Data Structure Adverse Event;Occurrence Flag;AOCCIFL;1st Max Sev./Int. Occurrence Flag;Char;;;;Y;Perm;Character indicator for the first occurrence of the event/intervention/finding with the maximum severity/intensity within the subject \n Example derivation: Sort the data in the required order and flag the first treatment emergent record for maximum severity for each subject.
ADaM OCCDS v1.1;Occurrence Data Structure Adverse Event;Occurrence Flag;AOCCPIFL;1st Max Sev./Int. Occur Within PT Flag;Char;;;;Y;Perm;Character indicator for the first occurrence of the maximum severity/intensity within the subject and preferred term \n Example derivation: Sort the data in the required order and flag the first treatment emergent record for maximum severity within preferred term for each subject.
ADaM OCCDS v1.1;Occurrence Data Structure Adverse Event;Occurrence Flag;AOCCzzFL;1st Occurrence of ...;Char;;;;Y;Perm;Additional flag variables as needed for analysis. Derivation rules for these flags need to be described in the metadata.
ADaM OCCDS v1.1;Occurrence Data Structure Adverse Event;MedDRA Occurrence Flag;AOCCSFL;1st Occurrence of SOC Flag;Char;;;;Y;Perm;Character indicator for the first occurrence of the system organ class within the subject \n Example derivation: Sort the data in the required order and flag the first treatment-emergent record for each body system for each subject.
ADaM OCCDS v1.1;Occurrence Data Structure Adverse Event;MedDRA Occurrence Flag;AOCCSIFL;1st Max Sev./Int. Occur Within SOC Flag;Char;;;;Y;Perm;Character indicator for the first occurrence of the maximum severity/intensity within the subject and system organ class \n Example derivation: Sort the data in the required order and flag the first treatment-emergent record for maximum severity within body system for each subject.
ADaM OCCDS v1.1;Occurrence Data Structure Adverse Event;Treatment/Dose;DOSEON;Treatment Dose at Record Start;Num;;;;;Perm;Dose received at the point in time of the record start date \n Example derivation: \n Obtained from EX.EXDOSE where --STDTC falls between the values of EX.EXSTDTC and EX.EXENDTC
ADaM OCCDS v1.1;Occurrence Data Structure Adverse Event;Treatment/Dose;DOSCUMA;Cumulative Actual Treatment Dose;Num;;;;;Perm;Cumulative actual study drug dosage at the point in time of the record start date \n
ADaM OCCDS v1.1;Occurrence Data Structure Adverse Event;Treatment/Dose;DOSEU;Treatment Dose Units;Char;C71620;UNIT;;;Cond;The units associated with DOSEON and/or DOSCUMA. Conditional on whether DOSEON and/or DOSCUMA are included.
ADaM OCCDS v1.1;Occurrence Data Structure Adverse Event;Adverse Event Descriptive;--SER;Serious Event;Char;C66742;NY;;;Req;XX.--SER
ADaM OCCDS v1.1;Occurrence Data Structure Adverse Event;Adverse Event Descriptive;--SEV;Severity/Intensity;Char;"C66769; C165643";"AESEV; SEVRS";;;Cond;XX.--SEV \n For SubClass ADVERSE EVENT, conditional on whether the --SEV variable is in the SDTM AE dataset. Note that either --SEV or --TOXGR should be included in SDTM.
ADaM OCCDS v1.1;Occurrence Data Structure Adverse Event;Adverse Event Descriptive;--SEVN;Severity/Intensity (N);Num;;;;"1; 2; 3";Perm;Code XX.--SEV to numeric \n Low intensity should correspond to low value
ADaM OCCDS v1.1;Occurrence Data Structure Adverse Event;Adverse Event Descriptive;ASEV;Analysis Severity/Intensity;Char;;;;;Perm;Apply imputation rules for missing severity of adverse events as specified in the SAP or metadata. May change case of text, such as from all uppercase in --SEV to mixed case in ASEV.
ADaM OCCDS v1.1;Occurrence Data Structure Adverse Event;Adverse Event Descriptive;ASEVN;Analysis Severity/Intensity (N);Num;;;;"1; 2; 3";Perm;Code ASEV to numeric \n Low intensity should correspond to low value
ADaM OCCDS v1.1;Occurrence Data Structure Adverse Event;Adverse Event Descriptive;SEVGRy;Pooled Severity Group y;Char;;;;;Perm;Pooled grouping of AE severity for analysis (e.g., mild/moderate, severe)
ADaM OCCDS v1.1;Occurrence Data Structure Adverse Event;Adverse Event Descriptive;SEVGRyN;Pooled Severity Group y (N);Num;;;;;Perm;Code SEVGRy to numeric \n Low intensity should correspond to low value
ADaM OCCDS v1.1;Occurrence Data Structure Adverse Event;Adverse Event Descriptive;--REL;Causality;Char;;;;;Req;XX.--REL
ADaM OCCDS v1.1;Occurrence Data Structure Adverse Event;Adverse Event Descriptive;--RELN;Causality (N);Num;;;;;Perm;Code XX.--REL to numeric \n Low relation should correspond to low value
ADaM OCCDS v1.1;Occurrence Data Structure Adverse Event;Adverse Event Descriptive;AREL;Analysis Causality;Char;;;;;Perm;Apply imputation rules for missing causality of study drug as specified in the SAP or metadata. May change case of text, such as from all uppercase in --REL to mixed case in AREL.
ADaM OCCDS v1.1;Occurrence Data Structure Adverse Event;Adverse Event Descriptive;ARELN;Analysis Causality (N);Num;;;;;Perm;Code AREL to numeric
ADaM OCCDS v1.1;Occurrence Data Structure Adverse Event;Adverse Event Descriptive;RELGRy;Pooled Causality Group y;Char;;;;;Perm;Pooled grouping of causality of study drug for analysis (e.g. related, not related)
ADaM OCCDS v1.1;Occurrence Data Structure Adverse Event;Adverse Event Descriptive;RELGRyN;Pooled Causality Group y (N);Num;;;;;Perm;Code of RELGRy to numeric \n Low relation should correspond to low value
ADaM OCCDS v1.1;Occurrence Data Structure Adverse Event;Adverse Event Descriptive;--TOXGR;Standard Toxicity Grade;Char;;;;;Cond;XX.--TOXGR \n For SubClass ADVERSE EVENT, conditional on whether the --TOXGR variable is in the SDTM AE dataset. Note that either --SEV or --TOXGR should be included in SDTM.
ADaM OCCDS v1.1;Occurrence Data Structure Adverse Event;Adverse Event Descriptive;--TOXGRN;Standard Toxicity Grade (N);Num;;;;;Perm;Code --TOXGR to numeric \n Low toxicity should correspond to low value
ADaM OCCDS v1.1;Occurrence Data Structure Adverse Event;Adverse Event Descriptive;ATOXGR;Analysis Toxicity Grade;Char;;;;;Perm;Toxicity grade for analysis. May be based on --TOXGR or an imputed or assigned value. May change case of text, such as from all uppercase in --TOXGR to mixed case in ATOXGR.
ADaM OCCDS v1.1;Occurrence Data Structure Adverse Event;Adverse Event Descriptive;ATOXGRN;Analysis Toxicity Grade (N);Num;;;;;Perm;Code ATOXGR to numeric \n Low toxicity should correspond to low value
ADaM OCCDS v1.1;Occurrence Data Structure Adverse Event;Adverse Event Descriptive;TOXGGRy;Pooled Toxicity Grade Group y;Char;;;;;Perm;Pooled grouping of toxicity grade for analysis
ADaM OCCDS v1.1;Occurrence Data Structure Adverse Event;Adverse Event Descriptive;TOXGGRyN;Pooled Toxicity Grade Group y (N);Num;;;;;Perm;Code of TOXGGRy to numeric \n Low toxicity should correspond to low value
ADaM OCCDS v1.1;Occurrence Data Structure Adverse Event;Adverse Event Descriptive;--ACN;Action Taken with Study Treatment;Char;C66767;ACN;;;Cond;XX.--ACN \n Required if XX.--ACN is present and populated
ADaM OCCDS v1.1;Occurrence Data Structure Adverse Event;Standardized MedDRA Query;SMQzzNAM;SMQ zz Name;Char;;;;;Cond;The Standardized MedDRA Query name. Would be blank for terms that are not in the SMQ. Therefore this variable could be blank for all records if no terms within the study were included in the SMQ. \n Conditional on whether SMQ analysis is done
ADaM OCCDS v1.1;Occurrence Data Structure Adverse Event;Standardized MedDRA Query;SMQzzCD;SMQ zz Code;Num;;;;;Perm;The standardized MedDRA queries number code
ADaM OCCDS v1.1;Occurrence Data Structure Adverse Event;Standardized MedDRA Query;SMQzzSC;SMQ zz Scope;Char;;;;"BROAD; NARROW";Cond;The search strategy for SMQs can be narrow or broad. The preferred terms that are narrow in scope have high specificity for identifying events of interest, whereas the broad terms have high sensitivity. By definition, all narrow terms are also considered within the broad scope. Therefore, to summarize all broad terms, terms with either narrow or broad would be considered. Will be null for terms that do not meet the criteria. \n Conditional on whether SMQ analysis is done
ADaM OCCDS v1.1;Occurrence Data Structure Adverse Event;Standardized MedDRA Query;SMQzzSCN;SMQ zz Scope (N);Num;;;;"1; 2";Perm;Will be null for terms that do not meet the criteria
ADaM OCCDS v1.1;Occurrence Data Structure Adverse Event;Standardized MedDRA Query;CQzzNAM;Customized Query zz Name;Char;;;;;Cond;"The CQ name or name of the adverse event of special interest category based on a grouping of terms. Would be blank for terms that are not in the CQ. \n Conditional on whether CQ analysis is done \n Examples: ""DERMATOLOGICAL EVENTS"" ""CARDIAC EVENTS"", ""IARS (INFUSION ASSOCIATED REACTIONS)"""
ADaM OCCDS v1.1;Occurrence Data Structure Adverse Event;Standardized MedDRA Query;ADECODy;Analysis Dictionary-Derived Term y;Char;;;;;Perm;The terms used for the analysis when combining multiple customized query or multiple standardized MedDRA queries and the original MedDRA dictionary terms under 1 variable \n Although designed for MedDRA queries, this variable could be used for other OCCDS analysis needs.
ADaM OCCDS v1.1;Occurrence Data Structure Adverse Event;Original or Prior MedDRA Coding;DECDORGw;PT in Original Dictionary w;Char;;;MedDRA;;Perm;Original preferred term coding of XX.--TERM using MedDRA or other dictionary version X.X
ADaM OCCDS v1.1;Occurrence Data Structure Adverse Event;Original or Prior MedDRA Coding;BDSYORGw;SOC in Original Dictionary w;Char;;;MedDRA;;Perm;Original body system coding of XX.--TERM using MedDRA or other dictionary version X.X
ADaM OCCDS v1.1;Occurrence Data Structure Adverse Event;Original or Prior MedDRA Coding;HLGTORGw;HLGT in Original Dictionary w;Char;;;MedDRA;;Perm;Original HLGT coding of XX.--TERM using MedDRA or other dictionary version X.X
ADaM OCCDS v1.1;Occurrence Data Structure Adverse Event;Original or Prior MedDRA Coding;HLTORGw;HLT in Original Dictionary w;Char;;;MedDRA;;Perm;Original HLT coding of XX.--TERM using MedDRA or other dictionary version X.X
ADaM OCCDS v1.1;Occurrence Data Structure Adverse Event;Original or Prior MedDRA Coding;LLTORGw;LLT in Original Dictionary w;Char;;;MedDRA;;Perm;Original LLT coding of XX.--TERM using MedDRA or other dictionary version X.X
ADaM OCCDS v1.1;Occurrence Data Structure Adverse Event;Original or Prior MedDRA Coding;LLTNORGw;LLT Code in Original Dictionary w;Char;;;MedDRA;;Perm;Original LLT code of XX.--TERM using MedDRA or other dictionary version X.X
ADaM OCCDS v1.1;Occurrence Data Structure Adverse Event;Original or Prior WHO Drug Coding;DECDORGw;Standardized Med Name in Orig Dict w;Char;;;WHODRUG;;Perm;Original standardized medication name of CM.CMTRT using WHO Drug version X.X
ADaM OCCDS v1.1;Occurrence Data Structure Adverse Event;Original or Prior WHO Drug Coding;CLASORGw;Medication Class in Orig Dictionary w;Char;;;WHODRUG;;Perm;Original medication class of CM.CMTRT using WHO Drug version X.X
ADaM OCCDS v1.1;Occurrence Data Structure Adverse Event;Original or Prior WHO Drug Coding;CLCDORGw;Medication Class Code in Orig Dict w;Char;;;WHODRUG;;Perm;Original medication class code of CM.CMTRT using WHO Drug version X.X
ADaM OCCDS v1.1;Occurrence Data Structure Adverse Event;Original or Prior WHO Drug Coding;ATyCORGw;ATC Level y Code in Orig Dictionary w;Char;;;WHODRUG;;Perm;Original ATC Level y code of CM.CMTRT using WHO Drug version X.X
ADaM OCCDS v1.1;Occurrence Data Structure Adverse Event;Original or Prior WHO Drug Coding;ATyTORGw;ATC Level y Text in Orig Dictionary w;Char;;;WHODRUG;;Perm;Original ATC Level y text of CM.CMTRT using WHO Drug version X.X
