{
  "variables": [
    {
      "version": "ADaMIG v1.3",
      "dataStructureName": "Subject-Level Analysis Dataset",
      "variableSet": "Identifier",
      "variableName": "STUDYID",
      "variableLabel": "Study Identifier",
      "type": "Char",
      "cdiscCtCodelistCodes": "",
      "cdiscCtCodelistSubmissionValues": "",
      "describedValueDomains": "",
      "valueListValue": "",
      "core": "Req",
      "cdiscNotes": "DM.STUDYID"
    },
    {
      "version": "ADaMIG v1.3",
      "dataStructureName": "Subject-Level Analysis Dataset",
      "variableSet": "Identifier",
      "variableName": "USUBJID",
      "variableLabel": "Unique Subject Identifier",
      "type": "Char",
      "cdiscCtCodelistCodes": "",
      "cdiscCtCodelistSubmissionValues": "",
      "describedValueDomains": "",
      "valueListValue": "",
      "core": "Req",
      "cdiscNotes": "DM.USUBJID"
    },
    {
      "version": "ADaMIG v1.3",
      "dataStructureName": "Subject-Level Analysis Dataset",
      "variableSet": "Identifier",
      "variableName": "SUBJID",
      "variableLabel": "Subject Identifier for the Study",
      "type": "Char",
      "cdiscCtCodelistCodes": "",
      "cdiscCtCodelistSubmissionValues": "",
      "describedValueDomains": "",
      "valueListValue": "",
      "core": "Req",
      "cdiscNotes": "DM.SUBJID. SUBJID is required in ADSL, but permissible in other datasets."
    },
    {
      "version": "ADaMIG v1.3",
      "dataStructureName": "Subject-Level Analysis Dataset",
      "variableSet": "Identifier",
      "variableName": "SITEID",
      "variableLabel": "Study Site Identifier",
      "type": "Char",
      "cdiscCtCodelistCodes": "",
      "cdiscCtCodelistSubmissionValues": "",
      "describedValueDomains": "",
      "valueListValue": "",
      "core": "Req",
      "cdiscNotes": "DM.SITEID. SITEID is required in ADSL, but permissible in other datasets."
    },
    {
      "version": "ADaMIG v1.3",
      "dataStructureName": "Subject-Level Analysis Dataset",
      "variableSet": "Identifier",
      "variableName": "SITEGRy",
      "variableLabel": "Pooled Site Group y",
      "type": "Char",
      "cdiscCtCodelistCodes": "",
      "cdiscCtCodelistSubmissionValues": "",
      "describedValueDomains": "",
      "valueListValue": "",
      "core": "Perm",
      "cdiscNotes": "Character description of a grouping or pooling of clinical sites for analysis purposes. For example, SITEGR3 is the name of a variable containing site group (pooled site) names, where the grouping has been done according to the third site grouping algorithm, defined in variable metadata; SITEGR3 does not mean the third group of sites."
    },
    {
      "version": "ADaMIG v1.3",
      "dataStructureName": "Subject-Level Analysis Dataset",
      "variableSet": "Identifier",
      "variableName": "SITEGRyN",
      "variableLabel": "Pooled Site Group y (N)",
      "type": "Num",
      "cdiscCtCodelistCodes": "",
      "cdiscCtCodelistSubmissionValues": "",
      "describedValueDomains": "",
      "valueListValue": "",
      "core": "Perm",
      "cdiscNotes": "Numeric representation of SITEGRy. There must be a one-to-one relationship between SITEGRyN and SITEGRy within a study. \\n SITEGRyN cannot be present unless SITEGRy is also present. When SITEGRy and SITEGRyN are present, then on a given record, either both must be populated or both must be null."
    },
    {
      "version": "ADaMIG v1.3",
      "dataStructureName": "Subject-Level Analysis Dataset",
      "variableSet": "Identifier",
      "variableName": "REGIONy",
      "variableLabel": "Geographic Region y",
      "type": "Char",
      "cdiscCtCodelistCodes": "",
      "cdiscCtCodelistSubmissionValues": "",
      "describedValueDomains": "",
      "valueListValue": "",
      "core": "Perm",
      "cdiscNotes": "Character description of geographical region. For example, REGION1 might have values of \"Asia\", \"Europe\", \"North America\", \"Rest of World\"; REGION2 might have values of \"United States\", \"Rest of World\"."
    },
    {
      "version": "ADaMIG v1.3",
      "dataStructureName": "Subject-Level Analysis Dataset",
      "variableSet": "Identifier",
      "variableName": "REGIONyN",
      "variableLabel": "Geographic Region y (N)",
      "type": "Num",
      "cdiscCtCodelistCodes": "",
      "cdiscCtCodelistSubmissionValues": "",
      "describedValueDomains": "",
      "valueListValue": "",
      "core": "Perm",
      "cdiscNotes": "Numeric representation of REGIONy. Orders REGIONy for analysis and reporting.There must be a one-to-one relationship between REGIONyN and REGIONy within a study. \\n REGIONyN cannot be present unless REGIONy is also present. When REGIONy and REGIONyN are present, then on a given record, either both must be populated or both must be null."
    },
    {
      "version": "ADaMIG v1.3",
      "dataStructureName": "Subject-Level Analysis Dataset",
      "variableSet": "Subject Demographics",
      "variableName": "AGE",
      "variableLabel": "Age",
      "type": "Num",
      "cdiscCtCodelistCodes": "",
      "cdiscCtCodelistSubmissionValues": "",
      "describedValueDomains": "",
      "valueListValue": "",
      "core": "Req",
      "cdiscNotes": "DM.AGE. If analysis needs require a derived age that does not match DM.AGE, then AAGE must be added"
    },
    {
      "version": "ADaMIG v1.3",
      "dataStructureName": "Subject-Level Analysis Dataset",
      "variableSet": "Subject Demographics",
      "variableName": "AGEU",
      "variableLabel": "Age Units",
      "type": "Char",
      "cdiscCtCodelistCodes": "C66781",
      "cdiscCtCodelistSubmissionValues": "AGEU",
      "describedValueDomains": "",
      "valueListValue": "",
      "core": "Req",
      "cdiscNotes": "DM.AGEU"
    },
    {
      "version": "ADaMIG v1.3",
      "dataStructureName": "Subject-Level Analysis Dataset",
      "variableSet": "Subject Demographics",
      "variableName": "AGEGRy",
      "variableLabel": "Pooled Age Group y",
      "type": "Char",
      "cdiscCtCodelistCodes": "",
      "cdiscCtCodelistSubmissionValues": "",
      "describedValueDomains": "",
      "valueListValue": "",
      "core": "Perm",
      "cdiscNotes": "Character description of a grouping or pooling of the subject's age for analysis purposes. For example, AGEGR1 might have values of \"<18\", \"18-65\", and \">65\"; AGEGR2 might have values of \"Less than 35 y old\" and \"At least 35 y old\"."
    },
    {
      "version": "ADaMIG v1.3",
      "dataStructureName": "Subject-Level Analysis Dataset",
      "variableSet": "Subject Demographics",
      "variableName": "AGEGRyN",
      "variableLabel": "Pooled Age Group y (N)",
      "type": "Num",
      "cdiscCtCodelistCodes": "",
      "cdiscCtCodelistSubmissionValues": "",
      "describedValueDomains": "",
      "valueListValue": "",
      "core": "Perm",
      "cdiscNotes": "Numeric representation of AGEGRy. Orders the grouping or pooling of subject age for analysis and reporting. There must be a one-to-one relationship between AGEGRyN and AGEGRy within a study. \\n AGEGRyN cannot be present unless AGEGRy is also present. When AGEGRy and AGEGRyN are present, then on a given record, either both must be populated or both must be null."
    },
    {
      "version": "ADaMIG v1.3",
      "dataStructureName": "Subject-Level Analysis Dataset",
      "variableSet": "Subject Demographics",
      "variableName": "AAGE",
      "variableLabel": "Analysis Age",
      "type": "Num",
      "cdiscCtCodelistCodes": "",
      "cdiscCtCodelistSubmissionValues": "",
      "describedValueDomains": "",
      "valueListValue": "",
      "core": "Cond",
      "cdiscNotes": "Age used for analysis that may be derived differently than DM.AGE. AAGE is required if age is calculated differently than DM.AGE."
    },
    {
      "version": "ADaMIG v1.3",
      "dataStructureName": "Subject-Level Analysis Dataset",
      "variableSet": "Subject Demographics",
      "variableName": "SEX",
      "variableLabel": "Sex",
      "type": "Char",
      "cdiscCtCodelistCodes": "C66731",
      "cdiscCtCodelistSubmissionValues": "SEX",
      "describedValueDomains": "",
      "valueListValue": "",
      "core": "Req",
      "cdiscNotes": "DM.SEX."
    },
    {
      "version": "ADaMIG v1.3",
      "dataStructureName": "Subject-Level Analysis Dataset",
      "variableSet": "Subject Demographics",
      "variableName": "RACE",
      "variableLabel": "Race",
      "type": "Char",
      "cdiscCtCodelistCodes": "C74457",
      "cdiscCtCodelistSubmissionValues": "RACE",
      "describedValueDomains": "",
      "valueListValue": "",
      "core": "Req",
      "cdiscNotes": "DM.RACE."
    },
    {
      "version": "ADaMIG v1.3",
      "dataStructureName": "Subject-Level Analysis Dataset",
      "variableSet": "Subject Demographics",
      "variableName": "RACEGRy",
      "variableLabel": "Pooled Race Group y",
      "type": "Char",
      "cdiscCtCodelistCodes": "",
      "cdiscCtCodelistSubmissionValues": "",
      "describedValueDomains": "",
      "valueListValue": "",
      "core": "Perm",
      "cdiscNotes": "Character description of a grouping or pooling of the subject's race for analysis purposes."
    },
    {
      "version": "ADaMIG v1.3",
      "dataStructureName": "Subject-Level Analysis Dataset",
      "variableSet": "Subject Demographics",
      "variableName": "RACEGRyN",
      "variableLabel": "Pooled Race Group y (N)",
      "type": "Num",
      "cdiscCtCodelistCodes": "",
      "cdiscCtCodelistSubmissionValues": "",
      "describedValueDomains": "",
      "valueListValue": "",
      "core": "Perm",
      "cdiscNotes": "Numeric representation of RACEGRy. Orders the grouping or pooling of subject race for analysis and reporting. There must be a one-to-one relationship between RACEGRyN and RACEGRy within a study. \\n RACEGRyN cannot be present unless RACEGRy is also present. When RACEGRy and RACEGRyN are present, then on a given record, either both must be populated or both must be null."
    },
    {
      "version": "ADaMIG v1.3",
      "dataStructureName": "Subject-Level Analysis Dataset",
      "variableSet": "Population Indicator",
      "variableName": "FASFL",
      "variableLabel": "Full Analysis Set Population Flag",
      "type": "Char",
      "cdiscCtCodelistCodes": "",
      "cdiscCtCodelistSubmissionValues": "",
      "describedValueDomains": "",
      "valueListValue": "Y; N",
      "core": "Cond",
      "cdiscNotes": "These flags identify whether or not the subject is included in the specified population. A minimum of one subject-level population flag variable is required in ADSL. \\n Not all of the indicators listed here need to be included in ADSL. As stated in Section 3.1.4, Flag Variable Conventions, only those indicators corresponding to populations defined in the statistical analysis plan or populations used as a basis for analysis need be included in ADSL. \\n This list of flags is not meant to be all-inclusive. Additional population flags may be added. \\n The values of subject-level population flags cannot be blank. If a flag is used, the corresponding numeric version (*FN, where 0 = No and 1 = Yes) of the population flag can also be included. Please also refer to Section 3.1.4, Flag Variable Conventions."
    },
    {
      "version": "ADaMIG v1.3",
      "dataStructureName": "Subject-Level Analysis Dataset",
      "variableSet": "Population Indicator",
      "variableName": "SAFFL",
      "variableLabel": "Safety Population Flag",
      "type": "Char",
      "cdiscCtCodelistCodes": "",
      "cdiscCtCodelistSubmissionValues": "",
      "describedValueDomains": "",
      "valueListValue": "Y; N",
      "core": "Cond",
      "cdiscNotes": "These flags identify whether or not the subject is included in the specified population. A minimum of one subject-level population flag variable is required in ADSL. \\n Not all of the indicators listed here need to be included in ADSL. As stated in Section 3.1.4, Flag Variable Conventions, only those indicators corresponding to populations defined in the statistical analysis plan or populations used as a basis for analysis need be included in ADSL. \\n This list of flags is not meant to be all-inclusive. Additional population flags may be added. \\n The values of subject-level population flags cannot be blank. If a flag is used, the corresponding numeric version (*FN, where 0 = No and 1 = Yes) of the population flag can also be included. Please also refer to Section 3.1.4, Flag Variable Conventions."
    },
    {
      "version": "ADaMIG v1.3",
      "dataStructureName": "Subject-Level Analysis Dataset",
      "variableSet": "Population Indicator",
      "variableName": "ITTFL",
      "variableLabel": "Intent-To-Treat Population Flag",
      "type": "Char",
      "cdiscCtCodelistCodes": "",
      "cdiscCtCodelistSubmissionValues": "",
      "describedValueDomains": "",
      "valueListValue": "Y; N",
      "core": "Cond",
      "cdiscNotes": "These flags identify whether or not the subject is included in the specified population. A minimum of one subject-level population flag variable is required in ADSL. \\n Not all of the indicators listed here need to be included in ADSL. As stated in Section 3.1.4, Flag Variable Conventions, only those indicators corresponding to populations defined in the statistical analysis plan or populations used as a basis for analysis need be included in ADSL. \\n This list of flags is not meant to be all-inclusive. Additional population flags may be added. \\n The values of subject-level population flags cannot be blank. If a flag is used, the corresponding numeric version (*FN, where 0 = No and 1 = Yes) of the population flag can also be included. Please also refer to Section 3.1.4, Flag Variable Conventions."
    },
    {
      "version": "ADaMIG v1.3",
      "dataStructureName": "Subject-Level Analysis Dataset",
      "variableSet": "Population Indicator",
      "variableName": "PPROTFL",
      "variableLabel": "Per-Protocol Population Flag",
      "type": "Char",
      "cdiscCtCodelistCodes": "",
      "cdiscCtCodelistSubmissionValues": "",
      "describedValueDomains": "",
      "valueListValue": "Y; N",
      "core": "Cond",
      "cdiscNotes": "These flags identify whether or not the subject is included in the specified population. A minimum of one subject-level population flag variable is required in ADSL. \\n Not all of the indicators listed here need to be included in ADSL. As stated in Section 3.1.4, Flag Variable Conventions, only those indicators corresponding to populations defined in the statistical analysis plan or populations used as a basis for analysis need be included in ADSL. \\n This list of flags is not meant to be all-inclusive. Additional population flags may be added. \\n The values of subject-level population flags cannot be blank. If a flag is used, the corresponding numeric version (*FN, where 0 = No and 1 = Yes) of the population flag can also be included. Please also refer to Section 3.1.4, Flag Variable Conventions."
    },
    {
      "version": "ADaMIG v1.3",
      "dataStructureName": "Subject-Level Analysis Dataset",
      "variableSet": "Population Indicator",
      "variableName": "COMPLFL",
      "variableLabel": "Completers Population Flag",
      "type": "Char",
      "cdiscCtCodelistCodes": "",
      "cdiscCtCodelistSubmissionValues": "",
      "describedValueDomains": "",
      "valueListValue": "Y; N",
      "core": "Cond",
      "cdiscNotes": "These flags identify whether or not the subject is included in the specified population. A minimum of one subject-level population flag variable is required in ADSL. \\n Not all of the indicators listed here need to be included in ADSL. As stated in Section 3.1.4, Flag Variable Conventions, only those indicators corresponding to populations defined in the statistical analysis plan or populations used as a basis for analysis need be included in ADSL. \\n This list of flags is not meant to be all-inclusive. Additional population flags may be added. \\n The values of subject-level population flags cannot be blank. If a flag is used, the corresponding numeric version (*FN, where 0 = No and 1 = Yes) of the population flag can also be included. Please also refer to Section 3.1.4, Flag Variable Conventions."
    },
    {
      "version": "ADaMIG v1.3",
      "dataStructureName": "Subject-Level Analysis Dataset",
      "variableSet": "Population Indicator",
      "variableName": "RANDFL",
      "variableLabel": "Randomized Population Flag",
      "type": "Char",
      "cdiscCtCodelistCodes": "",
      "cdiscCtCodelistSubmissionValues": "",
      "describedValueDomains": "",
      "valueListValue": "Y; N",
      "core": "Cond",
      "cdiscNotes": "These flags identify whether or not the subject is included in the specified population. A minimum of one subject-level population flag variable is required in ADSL. \\n Not all of the indicators listed here need to be included in ADSL. As stated in Section 3.1.4, Flag Variable Conventions, only those indicators corresponding to populations defined in the statistical analysis plan or populations used as a basis for analysis need be included in ADSL. \\n This list of flags is not meant to be all-inclusive. Additional population flags may be added. \\n The values of subject-level population flags cannot be blank. If a flag is used, the corresponding numeric version (*FN, where 0 = No and 1 = Yes) of the population flag can also be included. Please also refer to Section 3.1.4, Flag Variable Conventions."
    },
    {
      "version": "ADaMIG v1.3",
      "dataStructureName": "Subject-Level Analysis Dataset",
      "variableSet": "Population Indicator",
      "variableName": "ENRLFL",
      "variableLabel": "Enrolled Population Flag",
      "type": "Char",
      "cdiscCtCodelistCodes": "",
      "cdiscCtCodelistSubmissionValues": "",
      "describedValueDomains": "",
      "valueListValue": "Y; N",
      "core": "Cond",
      "cdiscNotes": "These flags identify whether or not the subject is included in the specified population. A minimum of one subject-level population flag variable is required in ADSL. \\n Not all of the indicators listed here need to be included in ADSL. As stated in Section 3.1.4, Flag Variable Conventions, only those indicators corresponding to populations defined in the statistical analysis plan or populations used as a basis for analysis need be included in ADSL. \\n This list of flags is not meant to be all-inclusive. Additional population flags may be added. \\n The values of subject-level population flags cannot be blank. If a flag is used, the corresponding numeric version (*FN, where 0 = No and 1 = Yes) of the population flag can also be included. Please also refer to Section 3.1.4, Flag Variable Conventions."
    },
    {
      "version": "ADaMIG v1.3",
      "dataStructureName": "Subject-Level Analysis Dataset",
      "variableSet": "Treatment",
      "variableName": "ARM",
      "variableLabel": "Description of Planned Arm",
      "type": "Char",
      "cdiscCtCodelistCodes": "",
      "cdiscCtCodelistSubmissionValues": "",
      "describedValueDomains": "",
      "valueListValue": "",
      "core": "Req",
      "cdiscNotes": "DM.ARM"
    },
    {
      "version": "ADaMIG v1.3",
      "dataStructureName": "Subject-Level Analysis Dataset",
      "variableSet": "Treatment",
      "variableName": "ACTARM",
      "variableLabel": "Description of Actual Arm",
      "type": "Char",
      "cdiscCtCodelistCodes": "",
      "cdiscCtCodelistSubmissionValues": "",
      "describedValueDomains": "",
      "valueListValue": "",
      "core": "Perm",
      "cdiscNotes": "DM.ACTARM"
    },
    {
      "version": "ADaMIG v1.3",
      "dataStructureName": "Subject-Level Analysis Dataset",
      "variableSet": "Treatment",
      "variableName": "TRTxxP",
      "variableLabel": "Planned Treatment for Period xx",
      "type": "Char",
      "cdiscCtCodelistCodes": "",
      "cdiscCtCodelistSubmissionValues": "",
      "describedValueDomains": "",
      "valueListValue": "",
      "core": "Req",
      "cdiscNotes": "Subject-level identifier that represents the planned treatment for period xx. In a one-period randomized trial, TRT01P would be the treatment to which the subject was randomized. TRTxxP might be derived from the SDTM DM variable ARM. At least TRT01P is required."
    },
    {
      "version": "ADaMIG v1.3",
      "dataStructureName": "Subject-Level Analysis Dataset",
      "variableSet": "Treatment",
      "variableName": "TRTxxPN",
      "variableLabel": "Planned Treatment for Period xx (N)",
      "type": "Num",
      "cdiscCtCodelistCodes": "",
      "cdiscCtCodelistSubmissionValues": "",
      "describedValueDomains": "",
      "valueListValue": "",
      "core": "Perm",
      "cdiscNotes": "Numeric representation of TRTxxP. There must be a one-to-one relationship between TRTxxPN and TRTxxP within a study. \\n TRTxxPN cannot be present unless TRTxxP is also present. When TRTxxP and TRTxxPN are present, then on a given record, either both must be populated or both must be null."
    },
    {
      "version": "ADaMIG v1.3",
      "dataStructureName": "Subject-Level Analysis Dataset",
      "variableSet": "Treatment",
      "variableName": "TRTxxA",
      "variableLabel": "Actual Treatment for Period xx",
      "type": "Char",
      "cdiscCtCodelistCodes": "",
      "cdiscCtCodelistSubmissionValues": "",
      "describedValueDomains": "",
      "valueListValue": "",
      "core": "Cond",
      "cdiscNotes": "Subject-level identifier that represents the actual treatment for the subject for period xx. Required when actual treatment does not match planned and there is an analysis of the data as treated."
    },
    {
      "version": "ADaMIG v1.3",
      "dataStructureName": "Subject-Level Analysis Dataset",
      "variableSet": "Treatment",
      "variableName": "TRTxxAN",
      "variableLabel": "Actual Treatment for Period xx (N)",
      "type": "Num",
      "cdiscCtCodelistCodes": "",
      "cdiscCtCodelistSubmissionValues": "",
      "describedValueDomains": "",
      "valueListValue": "",
      "core": "Perm",
      "cdiscNotes": "Numeric representation of TRTxxA. There must be a one-to-one relationship between TRTxxAN and TRTxxA within a study. \\n TRTxxAN cannot be present unless TRTxxA is also present. When TRTxxA and TRTxxAN are present, then on a given record, either both must be populated or both must be null."
    },
    {
      "version": "ADaMIG v1.3",
      "dataStructureName": "Subject-Level Analysis Dataset",
      "variableSet": "Treatment",
      "variableName": "TRTSEQP",
      "variableLabel": "Planned Sequence of Treatments",
      "type": "Char",
      "cdiscCtCodelistCodes": "",
      "cdiscCtCodelistSubmissionValues": "",
      "describedValueDomains": "",
      "valueListValue": "",
      "core": "Cond",
      "cdiscNotes": "Required when there is an analysis based on the sequence of treatments, for example in a crossover design. TRTSEQP is not necessarily equal to ARM, for example if ARM contains elements that are not relevant to analysis of treatments or ARM is not fully descriptive (e.g., \"GROUP 1,\" \"GROUP 2\"). When analyzing based on the sequence of treatments, TRTSEQP is required even if identical to ARM."
    },
    {
      "version": "ADaMIG v1.3",
      "dataStructureName": "Subject-Level Analysis Dataset",
      "variableSet": "Treatment",
      "variableName": "TRTSEQPN",
      "variableLabel": "Planned Sequence of Treatments (N)",
      "type": "Num",
      "cdiscCtCodelistCodes": "",
      "cdiscCtCodelistSubmissionValues": "",
      "describedValueDomains": "",
      "valueListValue": "",
      "core": "Perm",
      "cdiscNotes": "Numeric representation of TRTSEQP. There must be a one-to-one relationship between TRTSEQPN and TRTSEQP within a study. \\n TRTSEQPN cannot be present unless TRTSEQP is also present. When TRTSEQP and TRTSEQPN are present, then on a given record, either both must be populated or both must be null."
    },
    {
      "version": "ADaMIG v1.3",
      "dataStructureName": "Subject-Level Analysis Dataset",
      "variableSet": "Treatment",
      "variableName": "TRTSEQA",
      "variableLabel": "Actual Sequence of Treatments",
      "type": "Char",
      "cdiscCtCodelistCodes": "",
      "cdiscCtCodelistSubmissionValues": "",
      "describedValueDomains": "",
      "valueListValue": "",
      "core": "Cond",
      "cdiscNotes": "TRTSEQA is required if a situation occurred in the conduct of the trial where a subject received a sequence of treatments other than what was planned and there is an analysis based on the sequence of treatments."
    },
    {
      "version": "ADaMIG v1.3",
      "dataStructureName": "Subject-Level Analysis Dataset",
      "variableSet": "Treatment",
      "variableName": "TRTSEQAN",
      "variableLabel": "Actual Sequence of Treatments (N)",
      "type": "Num",
      "cdiscCtCodelistCodes": "",
      "cdiscCtCodelistSubmissionValues": "",
      "describedValueDomains": "",
      "valueListValue": "",
      "core": "Perm",
      "cdiscNotes": "Numeric representation of TRTSEQA. There must be a one-to-one relationship between TRTSEQAN and TRTSEQA within a study. \\n TRTSEQAN cannot be present unless TRTSEQA is also present. When TRTSEQA and TRTSEQAN are present, then on a given record, either both must be populated or both must be null."
    },
    {
      "version": "ADaMIG v1.3",
      "dataStructureName": "Subject-Level Analysis Dataset",
      "variableSet": "Treatment",
      "variableName": "TRxxPGy",
      "variableLabel": "Planned Pooled Treatment y for Period xx",
      "type": "Char",
      "cdiscCtCodelistCodes": "",
      "cdiscCtCodelistSubmissionValues": "",
      "describedValueDomains": "",
      "valueListValue": "",
      "core": "Perm",
      "cdiscNotes": "Planned pooled treatment y for period xx. Useful when planned treatments (TRTxxP) in the specified period xx are pooled together for analysis according to pooling algorithm y. For example when in period 2 the first pooling algorithm dictates that all doses of Drug A (TR02PG1=\"All doses of Drug A\") are pooled together for comparison to all doses of Drug B (TR02PG1=\"All doses of Drug B\"). Each value of TRTxxP is pooled within at most one value of TRxxPGy."
    },
    {
      "version": "ADaMIG v1.3",
      "dataStructureName": "Subject-Level Analysis Dataset",
      "variableSet": "Treatment",
      "variableName": "TRxxPGyN",
      "variableLabel": "Planned Pooled Trt y for Period xx (N)",
      "type": "Num",
      "cdiscCtCodelistCodes": "",
      "cdiscCtCodelistSubmissionValues": "",
      "describedValueDomains": "",
      "valueListValue": "",
      "core": "Perm",
      "cdiscNotes": "Numeric representation of TRxxPGy. There must be a one-to-one relationship between TRxxPGyN and TRxxPGy within a study. \\n TRxxPGyN cannot be present unless TRxxPGy is also present. When TRxxPGy and TRxxPGyN are present, then on a given record, either both must be populated or both must be null."
    },
    {
      "version": "ADaMIG v1.3",
      "dataStructureName": "Subject-Level Analysis Dataset",
      "variableSet": "Treatment",
      "variableName": "TRxxAGy",
      "variableLabel": "Actual Pooled Treatment y for Period xx",
      "type": "Char",
      "cdiscCtCodelistCodes": "",
      "cdiscCtCodelistSubmissionValues": "",
      "describedValueDomains": "",
      "valueListValue": "",
      "core": "Cond",
      "cdiscNotes": "Actual pooled treatment y for period xx. Required when TRxxPGy is present and TRTxxA is present."
    },
    {
      "version": "ADaMIG v1.3",
      "dataStructureName": "Subject-Level Analysis Dataset",
      "variableSet": "Treatment",
      "variableName": "TRxxAGyN",
      "variableLabel": "Actual Pooled Trt y for Period xx (N)",
      "type": "Num",
      "cdiscCtCodelistCodes": "",
      "cdiscCtCodelistSubmissionValues": "",
      "describedValueDomains": "",
      "valueListValue": "",
      "core": "Perm",
      "cdiscNotes": "Numeric representation of TRxxAGy. There must be a one-to-one relationship between TRxxAGyN and TRxxAGy within a study. \\n TRxxAGyN cannot be present unless TRxxAGy is also present. When TRxxAGy and TRxxAGyN are present, then on a given record, either both must be populated or both must be null."
    },
    {
      "version": "ADaMIG v1.3",
      "dataStructureName": "Subject-Level Analysis Dataset",
      "variableSet": "Treatment",
      "variableName": "TSEQPGy",
      "variableLabel": "Planned Pooled Treatment Sequence y",
      "type": "Char",
      "cdiscCtCodelistCodes": "",
      "cdiscCtCodelistSubmissionValues": "",
      "describedValueDomains": "",
      "valueListValue": "",
      "core": "Perm",
      "cdiscNotes": "Planned pooled treatment sequence y. Useful when planned treatment sequences (TRTSEQP) are pooled together for analysis according to pooling algorithm y. For example, this might be used in an analysis of an extension study when the analysis is based on what the subject received in the parent study as well as in the extension study."
    },
    {
      "version": "ADaMIG v1.3",
      "dataStructureName": "Subject-Level Analysis Dataset",
      "variableSet": "Treatment",
      "variableName": "TSEQPGyN",
      "variableLabel": "Planned Pooled Treatment Sequence y (N)",
      "type": "Num",
      "cdiscCtCodelistCodes": "",
      "cdiscCtCodelistSubmissionValues": "",
      "describedValueDomains": "",
      "valueListValue": "",
      "core": "Perm",
      "cdiscNotes": "Numeric representation of TSEQPGy. There must be a one-to-one relationship between TSEQPGyN and TSEQPGy within a study. \\n TSEQPGyN cannot be present unless TSEQPGy is also present. When TSEQPGy and TSEQPGyN are present, then on a given record, either both must be populated or both must be null."
    },
    {
      "version": "ADaMIG v1.3",
      "dataStructureName": "Subject-Level Analysis Dataset",
      "variableSet": "Treatment",
      "variableName": "TSEQAGy",
      "variableLabel": "Actual Pooled Treatment Sequence y",
      "type": "Char",
      "cdiscCtCodelistCodes": "",
      "cdiscCtCodelistSubmissionValues": "",
      "describedValueDomains": "",
      "valueListValue": "",
      "core": "Cond",
      "cdiscNotes": "Actual pooled treatment sequence y. Required when TSEQPGy is present and TRTSEQA is present."
    },
    {
      "version": "ADaMIG v1.3",
      "dataStructureName": "Subject-Level Analysis Dataset",
      "variableSet": "Treatment",
      "variableName": "TSEQAGyN",
      "variableLabel": "Actual Pooled Treatment Sequence y (N)",
      "type": "Num",
      "cdiscCtCodelistCodes": "",
      "cdiscCtCodelistSubmissionValues": "",
      "describedValueDomains": "",
      "valueListValue": "",
      "core": "Perm",
      "cdiscNotes": "Numeric representation of TSEQAGy. There must be a one-to-one relationship between TSEQAGyN and TSEQAGy within a study. \\n TSEQAGyN cannot be present unless TSEQAGy is also present. When TSEQAGy and TSEQAGyN are present, then on a given record, either both must be populated or both must be null."
    },
    {
      "version": "ADaMIG v1.3",
      "dataStructureName": "Subject-Level Analysis Dataset",
      "variableSet": "Dose",
      "variableName": "DOSExxP",
      "variableLabel": "Planned Treatment Dose for Period xx",
      "type": "Num",
      "cdiscCtCodelistCodes": "",
      "cdiscCtCodelistSubmissionValues": "",
      "describedValueDomains": "",
      "valueListValue": "",
      "core": "Perm",
      "cdiscNotes": "Subject-level identifier that represents the planned treatment dosage for period xx."
    },
    {
      "version": "ADaMIG v1.3",
      "dataStructureName": "Subject-Level Analysis Dataset",
      "variableSet": "Dose",
      "variableName": "DOSExxA",
      "variableLabel": "Actual Treatment Dose for Period xx",
      "type": "Num",
      "cdiscCtCodelistCodes": "",
      "cdiscCtCodelistSubmissionValues": "",
      "describedValueDomains": "",
      "valueListValue": "",
      "core": "Perm",
      "cdiscNotes": "Subject-level identifier that represents the actual treatment dosage for period xx."
    },
    {
      "version": "ADaMIG v1.3",
      "dataStructureName": "Subject-Level Analysis Dataset",
      "variableSet": "Dose",
      "variableName": "DOSExxU",
      "variableLabel": "Units for Dose for Period xx",
      "type": "Char",
      "cdiscCtCodelistCodes": "",
      "cdiscCtCodelistSubmissionValues": "",
      "describedValueDomains": "",
      "valueListValue": "",
      "core": "Perm",
      "cdiscNotes": "The units for DOSExxP and DOSExxA. It is permissible to use suffixes such as \"P\" and \"A\" if needed, with labels modified accordingly."
    },
    {
      "version": "ADaMIG v1.3",
      "dataStructureName": "Subject-Level Analysis Dataset",
      "variableSet": "Treatment Timing",
      "variableName": "TRTSDT",
      "variableLabel": "Date of First Exposure to Treatment",
      "type": "Num",
      "cdiscCtCodelistCodes": "",
      "cdiscCtCodelistSubmissionValues": "",
      "describedValueDomains": "",
      "valueListValue": "",
      "core": "Cond",
      "cdiscNotes": "Date of first exposure to treatment for a subject in a study. TRTSDT and/or TRTSDTM are required if there is an investigational product. Note that TRTSDT is not required to have the same value as the SDTM DM variable RFXSTDTC. While both of these dates reflect the concept of first exposure, the ADaM date may be derived to support the analysis which may not necessarily be the very first date in the SDTM EX domain."
    },
    {
      "version": "ADaMIG v1.3",
      "dataStructureName": "Subject-Level Analysis Dataset",
      "variableSet": "Treatment Timing",
      "variableName": "TRTSTM",
      "variableLabel": "Time of First Exposure to Treatment",
      "type": "Num",
      "cdiscCtCodelistCodes": "",
      "cdiscCtCodelistSubmissionValues": "",
      "describedValueDomains": "",
      "valueListValue": "",
      "core": "Perm",
      "cdiscNotes": "Time of first exposure to treatment for a subject in a study."
    },
    {
      "version": "ADaMIG v1.3",
      "dataStructureName": "Subject-Level Analysis Dataset",
      "variableSet": "Treatment Timing",
      "variableName": "TRTSDTM",
      "variableLabel": "Datetime of First Exposure to Treatment",
      "type": "Num",
      "cdiscCtCodelistCodes": "",
      "cdiscCtCodelistSubmissionValues": "",
      "describedValueDomains": "",
      "valueListValue": "",
      "core": "Cond",
      "cdiscNotes": "Datetime of first exposure to treatment for a subject in a study. TRTSDT and/or TRTSDTM are required if there is an investigational product."
    },
    {
      "version": "ADaMIG v1.3",
      "dataStructureName": "Subject-Level Analysis Dataset",
      "variableSet": "Treatment Timing",
      "variableName": "TRTSDTF",
      "variableLabel": "Date of First Exposure Imput. Flag",
      "type": "Char",
      "cdiscCtCodelistCodes": "C81223",
      "cdiscCtCodelistSubmissionValues": "DATEFL",
      "describedValueDomains": "",
      "valueListValue": "",
      "core": "Cond",
      "cdiscNotes": "The level of imputation of date of first exposure to treatment. If TRTSDT (or the date part of TRTSDTM) was imputed, TRTSDTF must be populated and is required. See Section 3.1.3, Date and Time Imputation Flag Variables."
    },
    {
      "version": "ADaMIG v1.3",
      "dataStructureName": "Subject-Level Analysis Dataset",
      "variableSet": "Treatment Timing",
      "variableName": "TRTSTMF",
      "variableLabel": "Time of First Exposure Imput. Flag",
      "type": "Char",
      "cdiscCtCodelistCodes": "C81226",
      "cdiscCtCodelistSubmissionValues": "TIMEFL",
      "describedValueDomains": "",
      "valueListValue": "",
      "core": "Cond",
      "cdiscNotes": "The level of imputation of time of first exposure to treatment. If TRTSTM (or the time part of TRTSDTM) was imputed, TRTSTMF must be populated and is required. See Section 3.1.3, Date and Time Imputation Flag Variables."
    },
    {
      "version": "ADaMIG v1.3",
      "dataStructureName": "Subject-Level Analysis Dataset",
      "variableSet": "Treatment Timing",
      "variableName": "TRTEDT",
      "variableLabel": "Date of Last Exposure to Treatment",
      "type": "Num",
      "cdiscCtCodelistCodes": "",
      "cdiscCtCodelistSubmissionValues": "",
      "describedValueDomains": "",
      "valueListValue": "",
      "core": "Cond",
      "cdiscNotes": "Date of last exposure to treatment for a subject in a study. TRTEDT and/or TRTEDTM are required if there is an investigational product. Note that TRTEDT is not required to have the same value as the SDTM DM variable RFXENDTC. While both of these dates reflect the concept of last exposure, the ADaM date may be derived to support the analysis which may not necessarily be the very last date in the SDTM EX domain."
    },
    {
      "version": "ADaMIG v1.3",
      "dataStructureName": "Subject-Level Analysis Dataset",
      "variableSet": "Treatment Timing",
      "variableName": "TRTETM",
      "variableLabel": "Time of Last Exposure to Treatment",
      "type": "Num",
      "cdiscCtCodelistCodes": "",
      "cdiscCtCodelistSubmissionValues": "",
      "describedValueDomains": "",
      "valueListValue": "",
      "core": "Perm",
      "cdiscNotes": "Time of last exposure to treatment for a subject in a study."
    },
    {
      "version": "ADaMIG v1.3",
      "dataStructureName": "Subject-Level Analysis Dataset",
      "variableSet": "Treatment Timing",
      "variableName": "TRTEDTM",
      "variableLabel": "Datetime of Last Exposure to Treatment",
      "type": "Num",
      "cdiscCtCodelistCodes": "",
      "cdiscCtCodelistSubmissionValues": "",
      "describedValueDomains": "",
      "valueListValue": "",
      "core": "Cond",
      "cdiscNotes": "Datetime of last exposure to treatment for a subject in a study. TRTEDT and/or TRTEDTM are required if there is an investigational product."
    },
    {
      "version": "ADaMIG v1.3",
      "dataStructureName": "Subject-Level Analysis Dataset",
      "variableSet": "Treatment Timing",
      "variableName": "TRTEDTF",
      "variableLabel": "Date of Last Exposure Imput. Flag",
      "type": "Char",
      "cdiscCtCodelistCodes": "C81223",
      "cdiscCtCodelistSubmissionValues": "DATEFL",
      "describedValueDomains": "",
      "valueListValue": "",
      "core": "Cond",
      "cdiscNotes": "The level of imputation of date of last exposure to treatment. If TRTEDT (or the date part of TRTEDTM) was imputed, TRTEDTF must be populated and is required. See Section 3.1.3, Date and Time Imputation Flag Variables."
    },
    {
      "version": "ADaMIG v1.3",
      "dataStructureName": "Subject-Level Analysis Dataset",
      "variableSet": "Treatment Timing",
      "variableName": "TRTETMF",
      "variableLabel": "Time of Last Exposure Imput. Flag",
      "type": "Char",
      "cdiscCtCodelistCodes": "C81226",
      "cdiscCtCodelistSubmissionValues": "TIMEFL",
      "describedValueDomains": "",
      "valueListValue": "",
      "core": "Cond",
      "cdiscNotes": "The level of imputation of time of last exposure to treatment. If TRTETM (or the time part of TRTEDTM) was imputed, TRTETMF must be populated and is required. See Section 3.1.3, Date and Time Imputation Flag Variables."
    },
    {
      "version": "ADaMIG v1.3",
      "dataStructureName": "Subject-Level Analysis Dataset",
      "variableSet": "Treatment Timing",
      "variableName": "TRxxSDT",
      "variableLabel": "Date of First Exposure in Period xx",
      "type": "Num",
      "cdiscCtCodelistCodes": "",
      "cdiscCtCodelistSubmissionValues": "",
      "describedValueDomains": "",
      "valueListValue": "",
      "core": "Cond",
      "cdiscNotes": "Date of first exposure to treatment in period xx. TRxxSDT and/or TRxxSDTM are only required in trial designs where multiple treatment periods are defined (i.e., required when there is a TRTxxP other than TRT01P). Examples include crossover designs or designs where multiple periods exist for the same treatment."
    },
    {
      "version": "ADaMIG v1.3",
      "dataStructureName": "Subject-Level Analysis Dataset",
      "variableSet": "Treatment Timing",
      "variableName": "TRxxSTM",
      "variableLabel": "Time of First Exposure in Period xx",
      "type": "Num",
      "cdiscCtCodelistCodes": "",
      "cdiscCtCodelistSubmissionValues": "",
      "describedValueDomains": "",
      "valueListValue": "",
      "core": "Cond",
      "cdiscNotes": "Starting time of exposure to treatment in period xx. TRxxSTM and/or TRxxSDTM are only required in trial designs where starting time is important to the analysis and multiple treatment periods are defined (i.e., required when there is a TRTxxP other than TRT01P)."
    },
    {
      "version": "ADaMIG v1.3",
      "dataStructureName": "Subject-Level Analysis Dataset",
      "variableSet": "Treatment Timing",
      "variableName": "TRxxSDTM",
      "variableLabel": "Datetime of First Exposure in Period xx",
      "type": "Num",
      "cdiscCtCodelistCodes": "",
      "cdiscCtCodelistSubmissionValues": "",
      "describedValueDomains": "",
      "valueListValue": "",
      "core": "Cond",
      "cdiscNotes": "Datetime of first exposure to treatment in period xx. TRxxSDTM is only required in trial designs where multiple treatment periods are defined (i.e., required when there is a TRTxxP other than TRT01P)."
    },
    {
      "version": "ADaMIG v1.3",
      "dataStructureName": "Subject-Level Analysis Dataset",
      "variableSet": "Treatment Timing",
      "variableName": "TRxxSDTF",
      "variableLabel": "Date 1st Exposure Period xx Imput. Flag",
      "type": "Char",
      "cdiscCtCodelistCodes": "C81223",
      "cdiscCtCodelistSubmissionValues": "DATEFL",
      "describedValueDomains": "",
      "valueListValue": "",
      "core": "Cond",
      "cdiscNotes": "The level of imputation of date of first exposure to treatment in period xx. If TRxxSDT (or the date part of TRxxSDTM) was imputed, TRxxSDTF must be populated and is required. See Section 3.1.3, Date and Time Imputation Flag Variables."
    },
    {
      "version": "ADaMIG v1.3",
      "dataStructureName": "Subject-Level Analysis Dataset",
      "variableSet": "Treatment Timing",
      "variableName": "TRxxSTMF",
      "variableLabel": "Time 1st Exposure Period xx Imput. Flag",
      "type": "Char",
      "cdiscCtCodelistCodes": "C81226",
      "cdiscCtCodelistSubmissionValues": "TIMEFL",
      "describedValueDomains": "",
      "valueListValue": "",
      "core": "Cond",
      "cdiscNotes": "The level of imputation of time of first exposure to treatment in period xx. If TRxxSTM (or the time part of TRxxSDTM) was imputed, TRxxSTMF must be populated and is required. See Section 3.1.3, Date and Time Imputation Flag Variables."
    },
    {
      "version": "ADaMIG v1.3",
      "dataStructureName": "Subject-Level Analysis Dataset",
      "variableSet": "Treatment Timing",
      "variableName": "TRxxEDT",
      "variableLabel": "Date of Last Exposure in Period xx",
      "type": "Num",
      "cdiscCtCodelistCodes": "",
      "cdiscCtCodelistSubmissionValues": "",
      "describedValueDomains": "",
      "valueListValue": "",
      "core": "Cond",
      "cdiscNotes": "Date of last exposure to treatment in period xx. TRxxEDT and/or TRxxEDTM are only required in trial designs where multiple treatment periods are defined (i.e., required when there is a TRTxxP other than TRT01P)."
    },
    {
      "version": "ADaMIG v1.3",
      "dataStructureName": "Subject-Level Analysis Dataset",
      "variableSet": "Treatment Timing",
      "variableName": "TRxxETM",
      "variableLabel": "Time of Last Exposure in Period xx",
      "type": "Num",
      "cdiscCtCodelistCodes": "",
      "cdiscCtCodelistSubmissionValues": "",
      "describedValueDomains": "",
      "valueListValue": "",
      "core": "Cond",
      "cdiscNotes": "Ending time of exposure to treatment in period xx. TRxxETM and/or TRxxEDTM are only required in trial designs where ending time is important to the analysis and multiple treatment periods are defined (i.e., required when there is a TRTxxP other than TRT01P)."
    },
    {
      "version": "ADaMIG v1.3",
      "dataStructureName": "Subject-Level Analysis Dataset",
      "variableSet": "Treatment Timing",
      "variableName": "TRxxEDTM",
      "variableLabel": "Datetime of Last Exposure in Period xx",
      "type": "Num",
      "cdiscCtCodelistCodes": "",
      "cdiscCtCodelistSubmissionValues": "",
      "describedValueDomains": "",
      "valueListValue": "",
      "core": "Cond",
      "cdiscNotes": "Datetime of last exposure to treatment in period xx. TRxxEDTM is only required in trial designs where multiple treatment periods are defined (i.e., required when there is a TRTxxP other than TRT01P)."
    },
    {
      "version": "ADaMIG v1.3",
      "dataStructureName": "Subject-Level Analysis Dataset",
      "variableSet": "Treatment Timing",
      "variableName": "TRxxEDTF",
      "variableLabel": "Date Last Exposure Period xx Imput. Flag",
      "type": "Char",
      "cdiscCtCodelistCodes": "C81223",
      "cdiscCtCodelistSubmissionValues": "DATEFL",
      "describedValueDomains": "",
      "valueListValue": "",
      "core": "Cond",
      "cdiscNotes": "The level of imputation of date of last exposure to treatment in period xx. If TRxxEDT (or the date part of TRxxEDTM) was imputed, TRxxEDTF must be populated and is required. See Section 3.1.3, Date and Time Imputation Flag Variables."
    },
    {
      "version": "ADaMIG v1.3",
      "dataStructureName": "Subject-Level Analysis Dataset",
      "variableSet": "Treatment Timing",
      "variableName": "TRxxETMF",
      "variableLabel": "Time Last Exposure Period xx Imput. Flag",
      "type": "Char",
      "cdiscCtCodelistCodes": "C81226",
      "cdiscCtCodelistSubmissionValues": "TIMEFL",
      "describedValueDomains": "",
      "valueListValue": "",
      "core": "Cond",
      "cdiscNotes": "The level of imputation of time of last exposure to treatment in period xx. If TRxxETM (or the time part of TRxxEDTM) was imputed, TRxxETMF must be populated and is required. See Section 3.1.3, Date and Time Imputation Flag Variables."
    },
    {
      "version": "ADaMIG v1.3",
      "dataStructureName": "Subject-Level Analysis Dataset",
      "variableSet": "Period, Subperiod, and Phase Timing",
      "variableName": "APxxSDT",
      "variableLabel": "Period xx Start Date",
      "type": "Num",
      "cdiscCtCodelistCodes": "",
      "cdiscCtCodelistSubmissionValues": "",
      "describedValueDomains": "",
      "valueListValue": "",
      "core": "Perm",
      "cdiscNotes": "The starting date of period xx."
    },
    {
      "version": "ADaMIG v1.3",
      "dataStructureName": "Subject-Level Analysis Dataset",
      "variableSet": "Period, Subperiod, and Phase Timing",
      "variableName": "APxxSTM",
      "variableLabel": "Period xx Start Time",
      "type": "Num",
      "cdiscCtCodelistCodes": "",
      "cdiscCtCodelistSubmissionValues": "",
      "describedValueDomains": "",
      "valueListValue": "",
      "core": "Perm",
      "cdiscNotes": "The starting time of period xx."
    },
    {
      "version": "ADaMIG v1.3",
      "dataStructureName": "Subject-Level Analysis Dataset",
      "variableSet": "Period, Subperiod, and Phase Timing",
      "variableName": "APxxSDTM",
      "variableLabel": "Period xx Start Datetime",
      "type": "Num",
      "cdiscCtCodelistCodes": "",
      "cdiscCtCodelistSubmissionValues": "",
      "describedValueDomains": "",
      "valueListValue": "",
      "core": "Perm",
      "cdiscNotes": "The starting datetime of period xx."
    },
    {
      "version": "ADaMIG v1.3",
      "dataStructureName": "Subject-Level Analysis Dataset",
      "variableSet": "Period, Subperiod, and Phase Timing",
      "variableName": "APxxSDTF",
      "variableLabel": "Period xx Start Date Imput. Flag",
      "type": "Char",
      "cdiscCtCodelistCodes": "C81223",
      "cdiscCtCodelistSubmissionValues": "DATEFL",
      "describedValueDomains": "",
      "valueListValue": "",
      "core": "Cond",
      "cdiscNotes": "The level of imputation of period xx start date. See Section 3.1.3, Date and Time Imputation Flag Variables."
    },
    {
      "version": "ADaMIG v1.3",
      "dataStructureName": "Subject-Level Analysis Dataset",
      "variableSet": "Period, Subperiod, and Phase Timing",
      "variableName": "APxxSTMF",
      "variableLabel": "Period xx Start Time Imput. Flag",
      "type": "Char",
      "cdiscCtCodelistCodes": "C81226",
      "cdiscCtCodelistSubmissionValues": "TIMEFL",
      "describedValueDomains": "",
      "valueListValue": "",
      "core": "Cond",
      "cdiscNotes": "The level of imputation of period xx start time. See Section 3.1.3, Date and Time Imputation Flag Variables."
    },
    {
      "version": "ADaMIG v1.3",
      "dataStructureName": "Subject-Level Analysis Dataset",
      "variableSet": "Period, Subperiod, and Phase Timing",
      "variableName": "APxxEDT",
      "variableLabel": "Period xx End Date",
      "type": "Num",
      "cdiscCtCodelistCodes": "",
      "cdiscCtCodelistSubmissionValues": "",
      "describedValueDomains": "",
      "valueListValue": "",
      "core": "Perm",
      "cdiscNotes": "The ending date of period xx."
    },
    {
      "version": "ADaMIG v1.3",
      "dataStructureName": "Subject-Level Analysis Dataset",
      "variableSet": "Period, Subperiod, and Phase Timing",
      "variableName": "APxxETM",
      "variableLabel": "Period xx End Time",
      "type": "Num",
      "cdiscCtCodelistCodes": "",
      "cdiscCtCodelistSubmissionValues": "",
      "describedValueDomains": "",
      "valueListValue": "",
      "core": "Perm",
      "cdiscNotes": "The ending time of period xx."
    },
    {
      "version": "ADaMIG v1.3",
      "dataStructureName": "Subject-Level Analysis Dataset",
      "variableSet": "Period, Subperiod, and Phase Timing",
      "variableName": "APxxEDTM",
      "variableLabel": "Period xx End Datetime",
      "type": "Num",
      "cdiscCtCodelistCodes": "",
      "cdiscCtCodelistSubmissionValues": "",
      "describedValueDomains": "",
      "valueListValue": "",
      "core": "Perm",
      "cdiscNotes": "The ending datetime of period xx."
    },
    {
      "version": "ADaMIG v1.3",
      "dataStructureName": "Subject-Level Analysis Dataset",
      "variableSet": "Period, Subperiod, and Phase Timing",
      "variableName": "APxxEDTF",
      "variableLabel": "Period xx End Date Imput. Flag",
      "type": "Char",
      "cdiscCtCodelistCodes": "C81223",
      "cdiscCtCodelistSubmissionValues": "DATEFL",
      "describedValueDomains": "",
      "valueListValue": "",
      "core": "Cond",
      "cdiscNotes": "The level of imputation of period xx end date. See Section 3.1.3, Date and Time Imputation Flag Variables."
    },
    {
      "version": "ADaMIG v1.3",
      "dataStructureName": "Subject-Level Analysis Dataset",
      "variableSet": "Period, Subperiod, and Phase Timing",
      "variableName": "APxxETMF",
      "variableLabel": "Period xx End Time Imput. Flag",
      "type": "Char",
      "cdiscCtCodelistCodes": "C81226",
      "cdiscCtCodelistSubmissionValues": "TIMEFL",
      "describedValueDomains": "",
      "valueListValue": "",
      "core": "Cond",
      "cdiscNotes": "The level of imputation of period xx end time. See Section 3.1.3, Date and Time Imputation Flag Variables."
    },
    {
      "version": "ADaMIG v1.3",
      "dataStructureName": "Subject-Level Analysis Dataset",
      "variableSet": "Period, Subperiod, and Phase Timing",
      "variableName": "PxxSw",
      "variableLabel": "Description of Period xx Subperiod w",
      "type": "Char",
      "cdiscCtCodelistCodes": "",
      "cdiscCtCodelistSubmissionValues": "",
      "describedValueDomains": "",
      "valueListValue": "",
      "core": "Perm",
      "cdiscNotes": "Description of analysis subperiod w within period xx."
    },
    {
      "version": "ADaMIG v1.3",
      "dataStructureName": "Subject-Level Analysis Dataset",
      "variableSet": "Period, Subperiod, and Phase Timing",
      "variableName": "PxxSwSDT",
      "variableLabel": "Period xx Subperiod w Start Date",
      "type": "Num",
      "cdiscCtCodelistCodes": "",
      "cdiscCtCodelistSubmissionValues": "",
      "describedValueDomains": "",
      "valueListValue": "",
      "core": "Perm",
      "cdiscNotes": "The starting date of subperiod w within period xx."
    },
    {
      "version": "ADaMIG v1.3",
      "dataStructureName": "Subject-Level Analysis Dataset",
      "variableSet": "Period, Subperiod, and Phase Timing",
      "variableName": "PxxSwSTM",
      "variableLabel": "Period xx Subperiod w Start Time",
      "type": "Num",
      "cdiscCtCodelistCodes": "",
      "cdiscCtCodelistSubmissionValues": "",
      "describedValueDomains": "",
      "valueListValue": "",
      "core": "Perm",
      "cdiscNotes": "The starting time of subperiod w within period xx."
    },
    {
      "version": "ADaMIG v1.3",
      "dataStructureName": "Subject-Level Analysis Dataset",
      "variableSet": "Period, Subperiod, and Phase Timing",
      "variableName": "PxxSwSDM",
      "variableLabel": "Period xx Subperiod w Start Datetime",
      "type": "Num",
      "cdiscCtCodelistCodes": "",
      "cdiscCtCodelistSubmissionValues": "",
      "describedValueDomains": "",
      "valueListValue": "",
      "core": "Perm",
      "cdiscNotes": "The starting datetime of subperiod w within period xx."
    },
    {
      "version": "ADaMIG v1.3",
      "dataStructureName": "Subject-Level Analysis Dataset",
      "variableSet": "Period, Subperiod, and Phase Timing",
      "variableName": "PxxSwSDF",
      "variableLabel": "Period xx Subper w Start Date Imput Flag",
      "type": "Char",
      "cdiscCtCodelistCodes": "C81223",
      "cdiscCtCodelistSubmissionValues": "DATEFL",
      "describedValueDomains": "",
      "valueListValue": "",
      "core": "Cond",
      "cdiscNotes": "The level of imputation of the start date for subperiod w within period xx. See Section 3.1.3, Date and Time Imputation Flag Variables."
    },
    {
      "version": "ADaMIG v1.3",
      "dataStructureName": "Subject-Level Analysis Dataset",
      "variableSet": "Period, Subperiod, and Phase Timing",
      "variableName": "PxxSwSTF",
      "variableLabel": "Period xx Subper w Start Time Imput Flag",
      "type": "Char",
      "cdiscCtCodelistCodes": "C81226",
      "cdiscCtCodelistSubmissionValues": "TIMEFL",
      "describedValueDomains": "",
      "valueListValue": "",
      "core": "Cond",
      "cdiscNotes": "The level of imputation of the start time for subperiod w within period xx. See Section 3.1.3, Date and Time Imputation Flag Variables."
    },
    {
      "version": "ADaMIG v1.3",
      "dataStructureName": "Subject-Level Analysis Dataset",
      "variableSet": "Period, Subperiod, and Phase Timing",
      "variableName": "PxxSwEDT",
      "variableLabel": "Period xx Subperiod w End Date",
      "type": "Num",
      "cdiscCtCodelistCodes": "",
      "cdiscCtCodelistSubmissionValues": "",
      "describedValueDomains": "",
      "valueListValue": "",
      "core": "Perm",
      "cdiscNotes": "The ending date of subperiod w within period xx."
    },
    {
      "version": "ADaMIG v1.3",
      "dataStructureName": "Subject-Level Analysis Dataset",
      "variableSet": "Period, Subperiod, and Phase Timing",
      "variableName": "PxxSwETM",
      "variableLabel": "Period xx Subperiod w End Time",
      "type": "Num",
      "cdiscCtCodelistCodes": "",
      "cdiscCtCodelistSubmissionValues": "",
      "describedValueDomains": "",
      "valueListValue": "",
      "core": "Perm",
      "cdiscNotes": "The ending time of subperiod w within period xx."
    },
    {
      "version": "ADaMIG v1.3",
      "dataStructureName": "Subject-Level Analysis Dataset",
      "variableSet": "Period, Subperiod, and Phase Timing",
      "variableName": "PxxSwEDM",
      "variableLabel": "Period xx Subperiod w End Datetime",
      "type": "Num",
      "cdiscCtCodelistCodes": "",
      "cdiscCtCodelistSubmissionValues": "",
      "describedValueDomains": "",
      "valueListValue": "",
      "core": "Perm",
      "cdiscNotes": "The ending datetime of subperiod w within period xx."
    },
    {
      "version": "ADaMIG v1.3",
      "dataStructureName": "Subject-Level Analysis Dataset",
      "variableSet": "Period, Subperiod, and Phase Timing",
      "variableName": "PxxSwEDF",
      "variableLabel": "Period xx Subper w End Date Imput Flag",
      "type": "Char",
      "cdiscCtCodelistCodes": "C81223",
      "cdiscCtCodelistSubmissionValues": "DATEFL",
      "describedValueDomains": "",
      "valueListValue": "",
      "core": "Cond",
      "cdiscNotes": "The level of imputation of the end date for subperiod w within period xx. See Section 3.1.3, Date and Time Imputation Flag Variables."
    },
    {
      "version": "ADaMIG v1.3",
      "dataStructureName": "Subject-Level Analysis Dataset",
      "variableSet": "Period, Subperiod, and Phase Timing",
      "variableName": "PxxSwETF",
      "variableLabel": "Period xx Subper w End Time Imput Flag",
      "type": "Char",
      "cdiscCtCodelistCodes": "C81226",
      "cdiscCtCodelistSubmissionValues": "TIMEFL",
      "describedValueDomains": "",
      "valueListValue": "",
      "core": "Cond",
      "cdiscNotes": "The level of imputation of the end time for subperiod w within period xx. See Section 3.1.3, Date and Time Imputation Flag Variables."
    },
    {
      "version": "ADaMIG v1.3",
      "dataStructureName": "Subject-Level Analysis Dataset",
      "variableSet": "Period, Subperiod, and Phase Timing",
      "variableName": "APHASEw",
      "variableLabel": "Description of Phase w",
      "type": "Char",
      "cdiscCtCodelistCodes": "",
      "cdiscCtCodelistSubmissionValues": "",
      "describedValueDomains": "",
      "valueListValue": "",
      "core": "Perm",
      "cdiscNotes": "Description of analysis phase w. Analysis phase is independent of TRTxxP within ADSL, and may be populated for spans of time where a subject is not on treatment."
    },
    {
      "version": "ADaMIG v1.3",
      "dataStructureName": "Subject-Level Analysis Dataset",
      "variableSet": "Period, Subperiod, and Phase Timing",
      "variableName": "PHwSDT",
      "variableLabel": "Phase w Start Date",
      "type": "Num",
      "cdiscCtCodelistCodes": "",
      "cdiscCtCodelistSubmissionValues": "",
      "describedValueDomains": "",
      "valueListValue": "",
      "core": "Perm",
      "cdiscNotes": "The starting date of phase w."
    },
    {
      "version": "ADaMIG v1.3",
      "dataStructureName": "Subject-Level Analysis Dataset",
      "variableSet": "Period, Subperiod, and Phase Timing",
      "variableName": "PHwSTM",
      "variableLabel": "Phase w Start Time",
      "type": "Num",
      "cdiscCtCodelistCodes": "",
      "cdiscCtCodelistSubmissionValues": "",
      "describedValueDomains": "",
      "valueListValue": "",
      "core": "Perm",
      "cdiscNotes": "The starting time of phase w."
    },
    {
      "version": "ADaMIG v1.3",
      "dataStructureName": "Subject-Level Analysis Dataset",
      "variableSet": "Period, Subperiod, and Phase Timing",
      "variableName": "PHwSDTM",
      "variableLabel": "Phase w Start Datetime",
      "type": "Num",
      "cdiscCtCodelistCodes": "",
      "cdiscCtCodelistSubmissionValues": "",
      "describedValueDomains": "",
      "valueListValue": "",
      "core": "Perm",
      "cdiscNotes": "The starting datetime of phase w."
    },
    {
      "version": "ADaMIG v1.3",
      "dataStructureName": "Subject-Level Analysis Dataset",
      "variableSet": "Period, Subperiod, and Phase Timing",
      "variableName": "PHwSDTF",
      "variableLabel": "Phase w Start Date Imputation Flag",
      "type": "Char",
      "cdiscCtCodelistCodes": "C81223",
      "cdiscCtCodelistSubmissionValues": "DATEFL",
      "describedValueDomains": "",
      "valueListValue": "",
      "core": "Cond",
      "cdiscNotes": "The level of imputation of the start date for phase w. See Section 3.1.3, Date and Time Imputation Flag Variables."
    },
    {
      "version": "ADaMIG v1.3",
      "dataStructureName": "Subject-Level Analysis Dataset",
      "variableSet": "Period, Subperiod, and Phase Timing",
      "variableName": "PHwSTMF",
      "variableLabel": "Phase w Start Time Imputation Flag",
      "type": "Char",
      "cdiscCtCodelistCodes": "C81226",
      "cdiscCtCodelistSubmissionValues": "TIMEFL",
      "describedValueDomains": "",
      "valueListValue": "",
      "core": "Cond",
      "cdiscNotes": "The level of imputation of the start time for phase w. See Section 3.1.3, Date and Time Imputation Flag Variables."
    },
    {
      "version": "ADaMIG v1.3",
      "dataStructureName": "Subject-Level Analysis Dataset",
      "variableSet": "Period, Subperiod, and Phase Timing",
      "variableName": "PHwEDT",
      "variableLabel": "Phase w End Date",
      "type": "Num",
      "cdiscCtCodelistCodes": "",
      "cdiscCtCodelistSubmissionValues": "",
      "describedValueDomains": "",
      "valueListValue": "",
      "core": "Perm",
      "cdiscNotes": "The ending date of phase w."
    },
    {
      "version": "ADaMIG v1.3",
      "dataStructureName": "Subject-Level Analysis Dataset",
      "variableSet": "Period, Subperiod, and Phase Timing",
      "variableName": "PHwETM",
      "variableLabel": "Phase w End Time",
      "type": "Num",
      "cdiscCtCodelistCodes": "",
      "cdiscCtCodelistSubmissionValues": "",
      "describedValueDomains": "",
      "valueListValue": "",
      "core": "Perm",
      "cdiscNotes": "The ending time of phase w."
    },
    {
      "version": "ADaMIG v1.3",
      "dataStructureName": "Subject-Level Analysis Dataset",
      "variableSet": "Period, Subperiod, and Phase Timing",
      "variableName": "PHwEDTM",
      "variableLabel": "Phase w End Datetime",
      "type": "Num",
      "cdiscCtCodelistCodes": "",
      "cdiscCtCodelistSubmissionValues": "",
      "describedValueDomains": "",
      "valueListValue": "",
      "core": "Perm",
      "cdiscNotes": "The ending datetime of phase w."
    },
    {
      "version": "ADaMIG v1.3",
      "dataStructureName": "Subject-Level Analysis Dataset",
      "variableSet": "Period, Subperiod, and Phase Timing",
      "variableName": "PHwEDTF",
      "variableLabel": "Phase w End Date Imputation Flag",
      "type": "Char",
      "cdiscCtCodelistCodes": "C81223",
      "cdiscCtCodelistSubmissionValues": "DATEFL",
      "describedValueDomains": "",
      "valueListValue": "",
      "core": "Cond",
      "cdiscNotes": "The level of imputation of the end date for phase w. See Section 3.1.3, Date and Time Imputation Flag Variables."
    },
    {
      "version": "ADaMIG v1.3",
      "dataStructureName": "Subject-Level Analysis Dataset",
      "variableSet": "Period, Subperiod, and Phase Timing",
      "variableName": "PHwETMF",
      "variableLabel": "Phase w End Time Imputation Flag",
      "type": "Char",
      "cdiscCtCodelistCodes": "C81226",
      "cdiscCtCodelistSubmissionValues": "TIMEFL",
      "describedValueDomains": "",
      "valueListValue": "",
      "core": "Cond",
      "cdiscNotes": "The level of imputation of the end time for phase w. See Section 3.1.3, Date and Time Imputation Flag Variables."
    },
    {
      "version": "ADaMIG v1.3",
      "dataStructureName": "Subject-Level Analysis Dataset",
      "variableSet": "Trial Experience",
      "variableName": "EOSSTT",
      "variableLabel": "End of Study Status",
      "type": "Char",
      "cdiscCtCodelistCodes": "C124296",
      "cdiscCtCodelistSubmissionValues": "SBJTSTAT",
      "describedValueDomains": "",
      "valueListValue": "",
      "core": "Perm",
      "cdiscNotes": "The subject's status as of the end of study or data cutoff. Examples: COMPLETED, DISCONTINUED, ONGOING."
    },
    {
      "version": "ADaMIG v1.3",
      "dataStructureName": "Subject-Level Analysis Dataset",
      "variableSet": "Trial Experience",
      "variableName": "EOSDT",
      "variableLabel": "End of Study Date",
      "type": "Num",
      "cdiscCtCodelistCodes": "",
      "cdiscCtCodelistSubmissionValues": "",
      "describedValueDomains": "",
      "valueListValue": "",
      "core": "Perm",
      "cdiscNotes": "Date subject ended the study - either date of completion or date of discontinuation or data cutoff date for interim analyses."
    },
    {
      "version": "ADaMIG v1.3",
      "dataStructureName": "Subject-Level Analysis Dataset",
      "variableSet": "Trial Experience",
      "variableName": "DCSREAS",
      "variableLabel": "Reason for Discontinuation from Study",
      "type": "Char",
      "cdiscCtCodelistCodes": "",
      "cdiscCtCodelistSubmissionValues": "",
      "describedValueDomains": "",
      "valueListValue": "",
      "core": "Perm",
      "cdiscNotes": "Reason for subject's discontinuation from study. The source would most likely be the SDTM DS dataset. Null for subjects who completed the study."
    },
    {
      "version": "ADaMIG v1.3",
      "dataStructureName": "Subject-Level Analysis Dataset",
      "variableSet": "Trial Experience",
      "variableName": "DCSREASP",
      "variableLabel": "Reason Spec for Discont from Study",
      "type": "Char",
      "cdiscCtCodelistCodes": "",
      "cdiscCtCodelistSubmissionValues": "",
      "describedValueDomains": "",
      "valueListValue": "",
      "core": "Perm",
      "cdiscNotes": "Additional detail regarding subject's discontinuation from study (e.g., description of \"other\")."
    },
    {
      "version": "ADaMIG v1.3",
      "dataStructureName": "Subject-Level Analysis Dataset",
      "variableSet": "Trial Experience",
      "variableName": "EOTSTT",
      "variableLabel": "End of Treatment Status",
      "type": "Char",
      "cdiscCtCodelistCodes": "C124296",
      "cdiscCtCodelistSubmissionValues": "SBJTSTAT",
      "describedValueDomains": "",
      "valueListValue": "",
      "core": "Perm",
      "cdiscNotes": "The subject's status as of the end of treatment or data cutoff. Examples: COMPLETED, DISCONTINUED, ONGOING."
    },
    {
      "version": "ADaMIG v1.3",
      "dataStructureName": "Subject-Level Analysis Dataset",
      "variableSet": "Trial Experience",
      "variableName": "DCTREAS",
      "variableLabel": "Reason for Discontinuation of Treatment",
      "type": "Char",
      "cdiscCtCodelistCodes": "",
      "cdiscCtCodelistSubmissionValues": "",
      "describedValueDomains": "",
      "valueListValue": "",
      "core": "Perm",
      "cdiscNotes": "If a subject discontinued treatment in the study, then this variable indicates the reason for discontinuation. This is for discontinuation of treatment in the overall study and not to be used for discontinuation reason within individual treatment periods."
    },
    {
      "version": "ADaMIG v1.3",
      "dataStructureName": "Subject-Level Analysis Dataset",
      "variableSet": "Trial Experience",
      "variableName": "DCTREASP",
      "variableLabel": "Reason Specify for Discont of Treatment",
      "type": "Char",
      "cdiscCtCodelistCodes": "",
      "cdiscCtCodelistSubmissionValues": "",
      "describedValueDomains": "",
      "valueListValue": "",
      "core": "Perm",
      "cdiscNotes": "Additional detail regarding subject's discontinuation from treatment (e.g., description of \"other\")."
    },
    {
      "version": "ADaMIG v1.3",
      "dataStructureName": "Subject-Level Analysis Dataset",
      "variableSet": "Trial Experience",
      "variableName": "EOTxxSTT",
      "variableLabel": "End of Treatment Status in Period xx",
      "type": "Char",
      "cdiscCtCodelistCodes": "C124296",
      "cdiscCtCodelistSubmissionValues": "SBJTSTAT",
      "describedValueDomains": "",
      "valueListValue": "",
      "core": "Perm",
      "cdiscNotes": "The subject's treatment status as of the end of period xx, or data cutoff if within period xx. Examples: COMPLETED, DISCONTINUED, ONGOING."
    },
    {
      "version": "ADaMIG v1.3",
      "dataStructureName": "Subject-Level Analysis Dataset",
      "variableSet": "Trial Experience",
      "variableName": "DCTxxRS",
      "variableLabel": "Reason for Discont of Treat in Period xx",
      "type": "Char",
      "cdiscCtCodelistCodes": "",
      "cdiscCtCodelistSubmissionValues": "",
      "describedValueDomains": "",
      "valueListValue": "",
      "core": "Perm",
      "cdiscNotes": "Reason for discontinuing treatment in period xx."
    },
    {
      "version": "ADaMIG v1.3",
      "dataStructureName": "Subject-Level Analysis Dataset",
      "variableSet": "Trial Experience",
      "variableName": "DCTxxRSP",
      "variableLabel": "Reason Spec for Disc of Trt in Period xx",
      "type": "Char",
      "cdiscCtCodelistCodes": "",
      "cdiscCtCodelistSubmissionValues": "",
      "describedValueDomains": "",
      "valueListValue": "",
      "core": "Perm",
      "cdiscNotes": "Additional detail regarding subject's discontinuation of treatment in period xx (e.g., description of \"other\")."
    },
    {
      "version": "ADaMIG v1.3",
      "dataStructureName": "Subject-Level Analysis Dataset",
      "variableSet": "Trial Experience",
      "variableName": "EOPxxSTT",
      "variableLabel": "End of Period xx Status",
      "type": "Char",
      "cdiscCtCodelistCodes": "C124296",
      "cdiscCtCodelistSubmissionValues": "SBJTSTAT",
      "describedValueDomains": "",
      "valueListValue": "",
      "core": "Perm",
      "cdiscNotes": "The subject's status as of the end of period xx, or data cutoff if within period xx. Examples: COMPLETED, DISCONTINUED, ONGOING."
    },
    {
      "version": "ADaMIG v1.3",
      "dataStructureName": "Subject-Level Analysis Dataset",
      "variableSet": "Trial Experience",
      "variableName": "DCPxxRS",
      "variableLabel": "Reason for Discont from Period xx",
      "type": "Char",
      "cdiscCtCodelistCodes": "",
      "cdiscCtCodelistSubmissionValues": "",
      "describedValueDomains": "",
      "valueListValue": "",
      "core": "Perm",
      "cdiscNotes": "Reason for discontinuing analysis period xx."
    },
    {
      "version": "ADaMIG v1.3",
      "dataStructureName": "Subject-Level Analysis Dataset",
      "variableSet": "Trial Experience",
      "variableName": "DCPxxRSP",
      "variableLabel": "Reason Spec for Discont from Period xx",
      "type": "Char",
      "cdiscCtCodelistCodes": "",
      "cdiscCtCodelistSubmissionValues": "",
      "describedValueDomains": "",
      "valueListValue": "",
      "core": "Perm",
      "cdiscNotes": "Additional detail regarding subject's discontinuation from period xx (e.g., description of \"other\")."
    },
    {
      "version": "ADaMIG v1.3",
      "dataStructureName": "Subject-Level Analysis Dataset",
      "variableSet": "Trial Experience",
      "variableName": "RFICDT",
      "variableLabel": "Date of Informed Consent",
      "type": "Num",
      "cdiscCtCodelistCodes": "",
      "cdiscCtCodelistSubmissionValues": "",
      "describedValueDomains": "",
      "valueListValue": "",
      "core": "Perm",
      "cdiscNotes": "Date subject gave informed consent. Generally equivalent to DM.RFICDTC."
    },
    {
      "version": "ADaMIG v1.3",
      "dataStructureName": "Subject-Level Analysis Dataset",
      "variableSet": "Trial Experience",
      "variableName": "ENRLDT",
      "variableLabel": "Date of Enrollment",
      "type": "Num",
      "cdiscCtCodelistCodes": "",
      "cdiscCtCodelistSubmissionValues": "",
      "describedValueDomains": "",
      "valueListValue": "",
      "core": "Perm",
      "cdiscNotes": "Date of subject's enrollment into trial."
    },
    {
      "version": "ADaMIG v1.3",
      "dataStructureName": "Subject-Level Analysis Dataset",
      "variableSet": "Trial Experience",
      "variableName": "RANDDT",
      "variableLabel": "Date of Randomization",
      "type": "Num",
      "cdiscCtCodelistCodes": "",
      "cdiscCtCodelistSubmissionValues": "",
      "describedValueDomains": "",
      "valueListValue": "",
      "core": "Cond",
      "cdiscNotes": "Required in randomized trials."
    },
    {
      "version": "ADaMIG v1.3",
      "dataStructureName": "Subject-Level Analysis Dataset",
      "variableSet": "Trial Experience",
      "variableName": "RFICyDT",
      "variableLabel": "Date of Informed Consent y",
      "type": "Num",
      "cdiscCtCodelistCodes": "",
      "cdiscCtCodelistSubmissionValues": "",
      "describedValueDomains": "",
      "valueListValue": "",
      "core": "Perm",
      "cdiscNotes": "This variable may be used in the case where there are multiple consent dates within a study. This date does not need to repeat the date in RFICDT. \"y\" can start with 1 but it is not required to start with 1."
    },
    {
      "version": "ADaMIG v1.3",
      "dataStructureName": "Subject-Level Analysis Dataset",
      "variableSet": "Trial Experience",
      "variableName": "ENRLyDT",
      "variableLabel": "Date of Enrollment y",
      "type": "Num",
      "cdiscCtCodelistCodes": "",
      "cdiscCtCodelistSubmissionValues": "",
      "describedValueDomains": "",
      "valueListValue": "",
      "core": "Perm",
      "cdiscNotes": "This variable may be used in the case where there are multiple enrollment dates within a study. This date does not need to repeat the date in ENRLDT. \"y\" can start with 1 but it is not required to start with 1."
    },
    {
      "version": "ADaMIG v1.3",
      "dataStructureName": "Subject-Level Analysis Dataset",
      "variableSet": "Trial Experience",
      "variableName": "RANDyDT",
      "variableLabel": "Date of Randomization y",
      "type": "Num",
      "cdiscCtCodelistCodes": "",
      "cdiscCtCodelistSubmissionValues": "",
      "describedValueDomains": "",
      "valueListValue": "",
      "core": "Perm",
      "cdiscNotes": "This variable may be used in the case where there are multiple randomization dates within a study. This date does not need to repeat the date in RANDDT. \"y\" can start with 1 but it is not required to start with 1."
    },
    {
      "version": "ADaMIG v1.3",
      "dataStructureName": "Subject-Level Analysis Dataset",
      "variableSet": "Trial Experience",
      "variableName": "LSTALVDT",
      "variableLabel": "Date Last Known Alive",
      "type": "Num",
      "cdiscCtCodelistCodes": "",
      "cdiscCtCodelistSubmissionValues": "",
      "describedValueDomains": "",
      "valueListValue": "",
      "core": "Perm",
      "cdiscNotes": "If this variable is included in ADSL, the best practice is to populate it for everyone. If the derivation for subjects who died differs from the derivation for subjects who are not known to have died, the differences should be noted in metadata."
    },
    {
      "version": "ADaMIG v1.3",
      "dataStructureName": "Subject-Level Analysis Dataset",
      "variableSet": "Trial Experience",
      "variableName": "TRCMP",
      "variableLabel": "Treatment Compliance (%)",
      "type": "Num",
      "cdiscCtCodelistCodes": "",
      "cdiscCtCodelistSubmissionValues": "",
      "describedValueDomains": "",
      "valueListValue": "",
      "core": "Perm",
      "cdiscNotes": "Overall percent compliance with treatment in the trial. TRCMP may be useful for inclusion in ADSL for reasons such as defining subgroups and/or populations."
    },
    {
      "version": "ADaMIG v1.3",
      "dataStructureName": "Subject-Level Analysis Dataset",
      "variableSet": "Trial Experience",
      "variableName": "TRCMPGy",
      "variableLabel": "Treatment Compliance (%) Group y",
      "type": "Char",
      "cdiscCtCodelistCodes": "",
      "cdiscCtCodelistSubmissionValues": "",
      "describedValueDomains": "",
      "valueListValue": "",
      "core": "Perm",
      "cdiscNotes": "Grouping \"y\" of TRCMP, treatment compliance percentage."
    },
    {
      "version": "ADaMIG v1.3",
      "dataStructureName": "Subject-Level Analysis Dataset",
      "variableSet": "Trial Experience",
      "variableName": "TRCMPGyN",
      "variableLabel": "Treatment Compliance (%) Group y (N)",
      "type": "Num",
      "cdiscCtCodelistCodes": "",
      "cdiscCtCodelistSubmissionValues": "",
      "describedValueDomains": "",
      "valueListValue": "",
      "core": "Perm",
      "cdiscNotes": "Numeric representation of treatment compliance (%) grouping \"y\". There must be a one-to-one relationship between TRCMPGyN and TRCMPGy within a study. \\n TRCMPGyN cannot be present unless TRCMPGy is also present. When TRCMPGy and TRCMPGyN are present, then on a given record, either both must be populated or both must be null."
    },
    {
      "version": "ADaMIG v1.3",
      "dataStructureName": "Subject-Level Analysis Dataset",
      "variableSet": "Trial Experience",
      "variableName": "TRxxDURD",
      "variableLabel": "Treatment Duration in Period xx (Days)",
      "type": "Num",
      "cdiscCtCodelistCodes": "",
      "cdiscCtCodelistSubmissionValues": "",
      "describedValueDomains": "",
      "valueListValue": "",
      "core": "Perm",
      "cdiscNotes": "Treatment duration for period xx as measured in days. More than one of TRxxDURD, TRxxDURM, and TRxxDURY can be populated, but each represents the entire duration in its respective units."
    },
    {
      "version": "ADaMIG v1.3",
      "dataStructureName": "Subject-Level Analysis Dataset",
      "variableSet": "Trial Experience",
      "variableName": "TRxxDURM",
      "variableLabel": "Treatment Duration in Period xx (Months)",
      "type": "Num",
      "cdiscCtCodelistCodes": "",
      "cdiscCtCodelistSubmissionValues": "",
      "describedValueDomains": "",
      "valueListValue": "",
      "core": "Perm",
      "cdiscNotes": "Treatment duration for period xx, as measure in months. More than one of TRxxDURD, TRxxDURM, and TRxxDURY can be populated, but each represents the entire duration in its respective units."
    },
    {
      "version": "ADaMIG v1.3",
      "dataStructureName": "Subject-Level Analysis Dataset",
      "variableSet": "Trial Experience",
      "variableName": "TRxxDURY",
      "variableLabel": "Treatment Duration in Period xx (Years)",
      "type": "Num",
      "cdiscCtCodelistCodes": "",
      "cdiscCtCodelistSubmissionValues": "",
      "describedValueDomains": "",
      "valueListValue": "",
      "core": "Perm",
      "cdiscNotes": "Treatment duration for period xx, as measured in years. More than one of TRxxDURD, TRxxDURM, and TRxxDURY can be populated, but each represents the entire duration in its respective units."
    },
    {
      "version": "ADaMIG v1.3",
      "dataStructureName": "Subject-Level Analysis Dataset",
      "variableSet": "Trial Experience",
      "variableName": "TRTDURD",
      "variableLabel": "Total Treatment Duration (Days)",
      "type": "Num",
      "cdiscCtCodelistCodes": "",
      "cdiscCtCodelistSubmissionValues": "",
      "describedValueDomains": "",
      "valueListValue": "",
      "core": "Perm",
      "cdiscNotes": "Total treatment duration, as measured in days. More than one of TRTDURD, TRTDURM, and TRTDURY can be populated, but each represents the entire duration in its respective units."
    },
    {
      "version": "ADaMIG v1.3",
      "dataStructureName": "Subject-Level Analysis Dataset",
      "variableSet": "Trial Experience",
      "variableName": "TRTDURM",
      "variableLabel": "Total Treatment Duration (Months)",
      "type": "Num",
      "cdiscCtCodelistCodes": "",
      "cdiscCtCodelistSubmissionValues": "",
      "describedValueDomains": "",
      "valueListValue": "",
      "core": "Perm",
      "cdiscNotes": "Total treatment duration, as measured in months. More than one of TRTDURD, TRTDURM, and TRTDURY can be populated, but each represents the entire duration in its respective units."
    },
    {
      "version": "ADaMIG v1.3",
      "dataStructureName": "Subject-Level Analysis Dataset",
      "variableSet": "Trial Experience",
      "variableName": "TRTDURY",
      "variableLabel": "Total Treatment Duration (Years)",
      "type": "Num",
      "cdiscCtCodelistCodes": "",
      "cdiscCtCodelistSubmissionValues": "",
      "describedValueDomains": "",
      "valueListValue": "",
      "core": "Perm",
      "cdiscNotes": "Total treatment duration, as measured in years. More than one of TRTDURD, TRTDURM, and TRTDURY can be populated, but each represents the entire duration in its respective units."
    },
    {
      "version": "ADaMIG v1.3",
      "dataStructureName": "Subject-Level Analysis Dataset",
      "variableSet": "Trial Experience",
      "variableName": "DTHDT",
      "variableLabel": "Date of Death",
      "type": "Num",
      "cdiscCtCodelistCodes": "",
      "cdiscCtCodelistSubmissionValues": "",
      "describedValueDomains": "",
      "valueListValue": "",
      "core": "Perm",
      "cdiscNotes": "Date of subject's death. Derived from DM.DTHDTC."
    },
    {
      "version": "ADaMIG v1.3",
      "dataStructureName": "Subject-Level Analysis Dataset",
      "variableSet": "Trial Experience",
      "variableName": "DTHDTF",
      "variableLabel": "Date of Death Imputation Flag",
      "type": "Char",
      "cdiscCtCodelistCodes": "C81223",
      "cdiscCtCodelistSubmissionValues": "DATEFL",
      "describedValueDomains": "",
      "valueListValue": "",
      "core": "Cond",
      "cdiscNotes": "Imputation flag for date of subject's death. If DTHDT was imputed, DTHDTF must be populated and is required. See Section 3.1.3, Date and Time Imputation Flag Variables."
    },
    {
      "version": "ADaMIG v1.3",
      "dataStructureName": "Subject-Level Analysis Dataset",
      "variableSet": "Trial Experience",
      "variableName": "DTHCAUS",
      "variableLabel": "Cause of Death",
      "type": "Char",
      "cdiscCtCodelistCodes": "",
      "cdiscCtCodelistSubmissionValues": "",
      "describedValueDomains": "",
      "valueListValue": "",
      "core": "Perm",
      "cdiscNotes": "Cause of Death."
    },
    {
      "version": "ADaMIG v1.3",
      "dataStructureName": "Subject-Level Analysis Dataset",
      "variableSet": "Trial Experience",
      "variableName": "DTHCAUSN",
      "variableLabel": "Cause of Death (N)",
      "type": "Num",
      "cdiscCtCodelistCodes": "",
      "cdiscCtCodelistSubmissionValues": "",
      "describedValueDomains": "",
      "valueListValue": "",
      "core": "Perm",
      "cdiscNotes": "Numeric representation of cause of death. There must be a one-to-one relationship between DTHCAUSN and DTHCAUS within a study. \\n DTHCAUSN cannot be present unless DTHCAUS is also present. When DTHCAUS and DTHCAUSN are present, then on a given record, either both must be populated or both must be null."
    },
    {
      "version": "ADaMIG v1.3",
      "dataStructureName": "Subject-Level Analysis Dataset",
      "variableSet": "Trial Experience",
      "variableName": "DTHCGRy",
      "variableLabel": "Cause of Death Group y",
      "type": "Char",
      "cdiscCtCodelistCodes": "",
      "cdiscCtCodelistSubmissionValues": "",
      "describedValueDomains": "",
      "valueListValue": "",
      "core": "Perm",
      "cdiscNotes": "Grouping \"y\" of DTHCAUS, the subject's cause of death."
    },
    {
      "version": "ADaMIG v1.3",
      "dataStructureName": "Subject-Level Analysis Dataset",
      "variableSet": "Trial Experience",
      "variableName": "DTHCGRyN",
      "variableLabel": "Cause of Death Group y (N)",
      "type": "Num",
      "cdiscCtCodelistCodes": "",
      "cdiscCtCodelistSubmissionValues": "",
      "describedValueDomains": "",
      "valueListValue": "",
      "core": "Perm",
      "cdiscNotes": "Numeric representation of grouping \"y\" of the subject's cause of death. There must be a one-to-one relationship between DTHCGRyN and DTHCGRy within a study. \\n DTHCGyN cannot be present unless DTHCGy is also present. When DTHCGy and DTHCGyN are present, then on a given record, either both must be populated or both must be null."
    },
    {
      "version": "ADaMIG v1.3",
      "dataStructureName": "Subject-Level Analysis Dataset",
      "variableSet": "Stratification",
      "variableName": "STRATAR",
      "variableLabel": "Strata Used for Randomization",
      "type": "Char",
      "cdiscCtCodelistCodes": "",
      "cdiscCtCodelistSubmissionValues": "",
      "describedValueDomains": "",
      "valueListValue": "",
      "core": "Perm",
      "cdiscNotes": "STRATAR contains the combination of values of the individual stratification factors used for randomization. The exact format should be determined by the sponsor. \\n This variable is intended for studies that use stratified randomization. \\n For example, \">=50, Treatment experienced, N\""
    },
    {
      "version": "ADaMIG v1.3",
      "dataStructureName": "Subject-Level Analysis Dataset",
      "variableSet": "Stratification",
      "variableName": "STRATARN",
      "variableLabel": "Strata Used for Randomization (N)",
      "type": "Num",
      "cdiscCtCodelistCodes": "",
      "cdiscCtCodelistSubmissionValues": "",
      "describedValueDomains": "",
      "valueListValue": "",
      "core": "Perm",
      "cdiscNotes": "Numeric representation of STRATAR. For example, STRATARN=3 when STRATAR=\">=50, Treatment experienced, N\". There must be a one-to-one relationship between STRATARN and STRATAR within a study. \\n STRATARN cannot be present unless STRATAR is also present. When STRATAR and STRATARN are present, then on a given record, either both must be populated or both must be null."
    },
    {
      "version": "ADaMIG v1.3",
      "dataStructureName": "Subject-Level Analysis Dataset",
      "variableSet": "Stratification",
      "variableName": "STRATwD",
      "variableLabel": "Description of Stratification Factor w",
      "type": "Char",
      "cdiscCtCodelistCodes": "",
      "cdiscCtCodelistSubmissionValues": "",
      "describedValueDomains": "",
      "valueListValue": "",
      "core": "Perm",
      "cdiscNotes": "STRATwD is a full text description of the stratification factor \"w\". This text description will remain constant for all subjects. These descriptive variables are included to quickly and clearly communicate critical study design information as well as to facilitate integration. \\n For example, STRAT3D=\"Hypertension\""
    },
    {
      "version": "ADaMIG v1.3",
      "dataStructureName": "Subject-Level Analysis Dataset",
      "variableSet": "Stratification",
      "variableName": "STRATwR",
      "variableLabel": "Strat Factor w Value Used for Rand",
      "type": "Char",
      "cdiscCtCodelistCodes": "",
      "cdiscCtCodelistSubmissionValues": "",
      "describedValueDomains": "",
      "valueListValue": "",
      "core": "Perm",
      "cdiscNotes": "STRATwR is the subject-level value of the \"w'th\" stratification factor used for randomization. \\n For example, STRAT3R=\"N\""
    },
    {
      "version": "ADaMIG v1.3",
      "dataStructureName": "Subject-Level Analysis Dataset",
      "variableSet": "Stratification",
      "variableName": "STRATwRN",
      "variableLabel": "Strat Factor w Value Used for Rand (N)",
      "type": "Num",
      "cdiscCtCodelistCodes": "",
      "cdiscCtCodelistSubmissionValues": "",
      "describedValueDomains": "",
      "valueListValue": "",
      "core": "Perm",
      "cdiscNotes": "Numeric representation of STRATwR. For example, STRAT3RN=0 when STRAT3R=\"N\". There must be a one-to-one relationship between STRATwRN and STRATwR within a study. \\n STRATwRN cannot be present unless STRATwR is also present. When STRATwR and STRATwRN are present, then on a given record, either both must be populated or both must be null."
    },
    {
      "version": "ADaMIG v1.3",
      "dataStructureName": "Subject-Level Analysis Dataset",
      "variableSet": "Stratification",
      "variableName": "STRATAV",
      "variableLabel": "Strata from Verification Source",
      "type": "Char",
      "cdiscCtCodelistCodes": "",
      "cdiscCtCodelistSubmissionValues": "",
      "describedValueDomains": "",
      "valueListValue": "",
      "core": "Perm",
      "cdiscNotes": "STRATAV contains the entire string value represents the combination of values of the individual stratification factors that should have been used and represents the \"as verified\" value. The STRATAV variables are based on the source documentation and are determined after randomization. If the values used for the randomization of a given subject were all correct, then STRATAV will equal STRATAR. Otherwise, one or more components of the text string for STRATAR and STRATAV will be different. \\n The exact format should be determined by the sponsor. \\n For example, \">=50, Treatment experienced, Y\""
    },
    {
      "version": "ADaMIG v1.3",
      "dataStructureName": "Subject-Level Analysis Dataset",
      "variableSet": "Stratification",
      "variableName": "STRATAVN",
      "variableLabel": "Strata from Verification Source (N)",
      "type": "Num",
      "cdiscCtCodelistCodes": "",
      "cdiscCtCodelistSubmissionValues": "",
      "describedValueDomains": "",
      "valueListValue": "",
      "core": "Perm",
      "cdiscNotes": "Numeric representation of STRATAV. For example, STRATAVN=4 when STRATVR=\">=50, Treatment experienced, Y\". There must be a one-to-one relationship between STRATAVN and STRATAV within a study. \\n STRATAVN cannot be present unless STRATAV is also present. When STRATAV and STRATAVN are present, then on a given record, either both must be populated or both must be null."
    },
    {
      "version": "ADaMIG v1.3",
      "dataStructureName": "Subject-Level Analysis Dataset",
      "variableSet": "Stratification",
      "variableName": "STRATwV",
      "variableLabel": "Strat Factor w Value from Verif Source",
      "type": "Char",
      "cdiscCtCodelistCodes": "",
      "cdiscCtCodelistSubmissionValues": "",
      "describedValueDomains": "",
      "valueListValue": "",
      "core": "Perm",
      "cdiscNotes": "STRATwV is the \"as verified\" subject-level value of the \"w'th\" stratification factor. If the value based on randomization was correct, then STRATwV will equal STRATwR. \\n For example, STRAT3V=\"Y\""
    },
    {
      "version": "ADaMIG v1.3",
      "dataStructureName": "Subject-Level Analysis Dataset",
      "variableSet": "Stratification",
      "variableName": "STRATwVN",
      "variableLabel": "Strat Fact w Val from Verif Source (N)",
      "type": "Num",
      "cdiscCtCodelistCodes": "",
      "cdiscCtCodelistSubmissionValues": "",
      "describedValueDomains": "",
      "valueListValue": "",
      "core": "Perm",
      "cdiscNotes": "Numeric representation of STRATwV. For example, STRAT3VN=1 when STRAT3V=\"Y\". There must be a one-to-one relationship between STRATwVN and STRATwV within a study. \\n STRATwVN cannot be present unless STRATwV is also present. When STRATwV and STRATwVN are present, then on a given record, either both must be populated or both must be null. \\n"
    },
    {
      "version": "ADaMIG v1.3",
      "dataStructureName": "Basic Data Structure",
      "variableSet": "Record-Level Treatment",
      "variableName": "TRTP",
      "variableLabel": "Planned Treatment",
      "type": "Char",
      "cdiscCtCodelistCodes": "",
      "cdiscCtCodelistSubmissionValues": "",
      "describedValueDomains": "",
      "valueListValue": "",
      "core": "Cond",
      "cdiscNotes": "TRTP is a record-level identifier that represents the planned treatment attributed to a record for analysis purposes. TRTP indicates how treatment varies by record within a subject and enables analysis of crossover and other designs. Though there is no requirement that TRTP will correspond to the TRTxxP as defined by the record's value of APERIOD, if populated, TRTP must match at least one value of the character planned treatment variables in ADSL (e.g., TRTxxP, TRTSEQP, TRxxPGy). \\n As noted previously, at least one treatment variable is required even in non-randomized trials. This requirement is satisfied by any subject-level or record-level treatment variables (e.g., TRTxxP, TRTP, TRTA). Even if not used for analysis, any ADSL treatment variable may be included in the BDS dataset."
    },
    {
      "version": "ADaMIG v1.3",
      "dataStructureName": "Basic Data Structure",
      "variableSet": "Record-Level Treatment",
      "variableName": "TRTPN",
      "variableLabel": "Planned Treatment (N)",
      "type": "Num",
      "cdiscCtCodelistCodes": "",
      "cdiscCtCodelistSubmissionValues": "",
      "describedValueDomains": "",
      "valueListValue": "",
      "core": "Perm",
      "cdiscNotes": "Numeric representation of TRTP. There must be a one-to-one relationship between TRTPN and TRTP within a study. \\n TRTPN cannot be present unless TRTP is also present. When TRTP and TRTPN are present, then on a given record, either both must be populated or both must be null."
    },
    {
      "version": "ADaMIG v1.3",
      "dataStructureName": "Basic Data Structure",
      "variableSet": "Record-Level Treatment",
      "variableName": "TRTA",
      "variableLabel": "Actual Treatment",
      "type": "Char",
      "cdiscCtCodelistCodes": "",
      "cdiscCtCodelistSubmissionValues": "",
      "describedValueDomains": "",
      "valueListValue": "",
      "core": "Cond",
      "cdiscNotes": "TRTA is a record-level identifier that represents the actual treatment attributed to a record for analysis purposes. TRTA indicates how treatment varies by record within a subject and enables analysis of crossover and other multi-period designs. Though there is no requirement that TRTA will correspond to the TRTxxA as defined by the record's value of APERIOD, TRTA must match at least one value of the character actual treatment variables in ADSL (e.g., TRTxxA, TRTSEQA, TRxxAGy). \\n As noted previously, at least one treatment variable is required. This requirement is satisfied by any subject-level or record-level treatment variables (e.g., TRTxxP, TRTP, TRTA). Even if not used for analysis, any ADSL treatment variable may be included in the BDS dataset."
    },
    {
      "version": "ADaMIG v1.3",
      "dataStructureName": "Basic Data Structure",
      "variableSet": "Record-Level Treatment",
      "variableName": "TRTAN",
      "variableLabel": "Actual Treatment (N)",
      "type": "Num",
      "cdiscCtCodelistCodes": "",
      "cdiscCtCodelistSubmissionValues": "",
      "describedValueDomains": "",
      "valueListValue": "",
      "core": "Perm",
      "cdiscNotes": "Numeric representation of TRTA. There must be a one-to-one relationship between TRTAN and TRTA within a study. \\n TRTAN cannot be present unless TRTA is also present. When TRTA and TRTAN are present, then on a given record, either both must be populated or both must be null."
    },
    {
      "version": "ADaMIG v1.3",
      "dataStructureName": "Basic Data Structure",
      "variableSet": "Record-Level Treatment",
      "variableName": "TRTPGy",
      "variableLabel": "Planned Pooled Treatment y",
      "type": "Char",
      "cdiscCtCodelistCodes": "",
      "cdiscCtCodelistSubmissionValues": "",
      "describedValueDomains": "",
      "valueListValue": "",
      "core": "Perm",
      "cdiscNotes": "TRTPGy is the planned pooled treatment y attributed to a record for analysis purposes. \"y\" represents an integer [1-99, not zero-padded] corresponding to a particular pooling scheme. Useful when planned treatments (TRTP) are pooled together for analysis, for example when all doses of Drug A (TRTPG1=All doses of Drug A) are compared to all doses of Drug B (TRTPG1=All doses of Drug B). Each value of TRTP is pooled within at most one value of TRTPGy."
    },
    {
      "version": "ADaMIG v1.3",
      "dataStructureName": "Basic Data Structure",
      "variableSet": "Record-Level Treatment",
      "variableName": "TRTPGyN",
      "variableLabel": "Planned Pooled Treatment y (N)",
      "type": "Num",
      "cdiscCtCodelistCodes": "",
      "cdiscCtCodelistSubmissionValues": "",
      "describedValueDomains": "",
      "valueListValue": "",
      "core": "Perm",
      "cdiscNotes": "Numeric representation of TRTPGy. There must be a one-to-one relationship between TRTPGyN and TRTPGy within a study. \\n TRTPGyN cannot be present unless TRTPGy is also present. When TRTPGy and TRTPGyN are present, then on a given record, either both must be populated or both must be null."
    },
    {
      "version": "ADaMIG v1.3",
      "dataStructureName": "Basic Data Structure",
      "variableSet": "Record-Level Treatment",
      "variableName": "TRTAGy",
      "variableLabel": "Actual Pooled Treatment y",
      "type": "Char",
      "cdiscCtCodelistCodes": "",
      "cdiscCtCodelistSubmissionValues": "",
      "describedValueDomains": "",
      "valueListValue": "",
      "core": "Cond",
      "cdiscNotes": "TRTAGy is the actual pooled treatment y attributed to a record for analysis purposes. \"y\" represents an integer [1-99, not zero-padded] corresponding to a particular pooling scheme. Required when TRTPGy is present and TRTA is present."
    },
    {
      "version": "ADaMIG v1.3",
      "dataStructureName": "Basic Data Structure",
      "variableSet": "Record-Level Treatment",
      "variableName": "TRTAGyN",
      "variableLabel": "Actual Pooled Treatment y (N)",
      "type": "Num",
      "cdiscCtCodelistCodes": "",
      "cdiscCtCodelistSubmissionValues": "",
      "describedValueDomains": "",
      "valueListValue": "",
      "core": "Perm",
      "cdiscNotes": "Numeric representation of TRTAGy. There must be a one-to-one relationship between TRTAGyN and TRTAGy within a study. \\n TRTAGyN cannot be present unless TRTAGy is also present. When TRTAGy and TRTAGyN are present, then on a given record, either both must be populated or both must be null."
    },
    {
      "version": "ADaMIG v1.3",
      "dataStructureName": "Basic Data Structure",
      "variableSet": "Record-Level Dose",
      "variableName": "DOSEP",
      "variableLabel": "Planned Treatment Dose",
      "type": "Num",
      "cdiscCtCodelistCodes": "",
      "cdiscCtCodelistSubmissionValues": "",
      "describedValueDomains": "",
      "valueListValue": "",
      "core": "Perm",
      "cdiscNotes": "DOSEP represents the planned treatment dosage associated with the record."
    },
    {
      "version": "ADaMIG v1.3",
      "dataStructureName": "Basic Data Structure",
      "variableSet": "Record-Level Dose",
      "variableName": "DOSCUMP",
      "variableLabel": "Cumulative Planned Treatment Dose",
      "type": "Num",
      "cdiscCtCodelistCodes": "",
      "cdiscCtCodelistSubmissionValues": "",
      "describedValueDomains": "",
      "valueListValue": "",
      "core": "Perm",
      "cdiscNotes": "Cumulative planned dosage of treatment for the subject at the point in time of the record (e.g., ADT)."
    },
    {
      "version": "ADaMIG v1.3",
      "dataStructureName": "Basic Data Structure",
      "variableSet": "Record-Level Dose",
      "variableName": "DOSEA",
      "variableLabel": "Actual Treatment Dose",
      "type": "Num",
      "cdiscCtCodelistCodes": "",
      "cdiscCtCodelistSubmissionValues": "",
      "describedValueDomains": "",
      "valueListValue": "",
      "core": "Perm",
      "cdiscNotes": "DOSEA represents the actual treatment dosage associated with the record."
    },
    {
      "version": "ADaMIG v1.3",
      "dataStructureName": "Basic Data Structure",
      "variableSet": "Record-Level Dose",
      "variableName": "DOSCUMA",
      "variableLabel": "Cumulative Actual Treatment Dose",
      "type": "Num",
      "cdiscCtCodelistCodes": "",
      "cdiscCtCodelistSubmissionValues": "",
      "describedValueDomains": "",
      "valueListValue": "",
      "core": "Perm",
      "cdiscNotes": "Cumulative actual dosage of treatment for the subject at the point in time of the record (e.g., ADT)."
    },
    {
      "version": "ADaMIG v1.3",
      "dataStructureName": "Basic Data Structure",
      "variableSet": "Record-Level Dose",
      "variableName": "DOSEU",
      "variableLabel": "Treatment Dose Units",
      "type": "Char",
      "cdiscCtCodelistCodes": "",
      "cdiscCtCodelistSubmissionValues": "",
      "describedValueDomains": "",
      "valueListValue": "",
      "core": "Perm",
      "cdiscNotes": "The units for DOSEP, DOSCUMP, DOSEA, and DOSCUMA. It is permissible to use suffixes such as \"P\" and \"A\" if needed, with labels modified accordingly."
    },
    {
      "version": "ADaMIG v1.3",
      "dataStructureName": "Basic Data Structure",
      "variableSet": "Timing",
      "variableName": "ADT",
      "variableLabel": "Analysis Date",
      "type": "Num",
      "cdiscCtCodelistCodes": "",
      "cdiscCtCodelistSubmissionValues": "",
      "describedValueDomains": "",
      "valueListValue": "",
      "core": "Cond",
      "cdiscNotes": "The date associated with AVAL and/or AVALC in numeric format."
    },
    {
      "version": "ADaMIG v1.3",
      "dataStructureName": "Basic Data Structure",
      "variableSet": "Timing",
      "variableName": "ATM",
      "variableLabel": "Analysis Time",
      "type": "Num",
      "cdiscCtCodelistCodes": "",
      "cdiscCtCodelistSubmissionValues": "",
      "describedValueDomains": "",
      "valueListValue": "",
      "core": "Cond",
      "cdiscNotes": "The time associated with AVAL and/or AVALC in numeric format."
    },
    {
      "version": "ADaMIG v1.3",
      "dataStructureName": "Basic Data Structure",
      "variableSet": "Timing",
      "variableName": "ADTM",
      "variableLabel": "Analysis Datetime",
      "type": "Num",
      "cdiscCtCodelistCodes": "",
      "cdiscCtCodelistSubmissionValues": "",
      "describedValueDomains": "",
      "valueListValue": "",
      "core": "Cond",
      "cdiscNotes": "The datetime associated with AVAL and/or AVALC in numeric format."
    },
    {
      "version": "ADaMIG v1.3",
      "dataStructureName": "Basic Data Structure",
      "variableSet": "Timing",
      "variableName": "ADY",
      "variableLabel": "Analysis Relative Day",
      "type": "Num",
      "cdiscCtCodelistCodes": "",
      "cdiscCtCodelistSubmissionValues": "",
      "describedValueDomains": "",
      "valueListValue": "",
      "core": "Cond",
      "cdiscNotes": "The relative day of AVAL and/or AVALC. The number of days from an anchor date (not necessarily DM.RFSTDTC) to ADT. See Section 3.1.2, Timing Variable Conventions. If a dataset contains more than one record per parameter per subject, then an SDTM or ADaM relative timing variable must be present (ADY would meet this requirement)."
    },
    {
      "version": "ADaMIG v1.3",
      "dataStructureName": "Basic Data Structure",
      "variableSet": "Timing",
      "variableName": "ADTF",
      "variableLabel": "Analysis Date Imputation Flag",
      "type": "Char",
      "cdiscCtCodelistCodes": "C81223",
      "cdiscCtCodelistSubmissionValues": "DATEFL",
      "describedValueDomains": "",
      "valueListValue": "",
      "core": "Cond",
      "cdiscNotes": "The level of imputation of analysis date. If ADT (or the date part of ADTM) was imputed, ADTF must be populated and is required. See Section 3.1.3, Date and Time Imputation Flag Variables."
    },
    {
      "version": "ADaMIG v1.3",
      "dataStructureName": "Basic Data Structure",
      "variableSet": "Timing",
      "variableName": "ATMF",
      "variableLabel": "Analysis Time Imputation Flag",
      "type": "Char",
      "cdiscCtCodelistCodes": "C81226",
      "cdiscCtCodelistSubmissionValues": "TIMEFL",
      "describedValueDomains": "",
      "valueListValue": "",
      "core": "Cond",
      "cdiscNotes": "The level of imputation of analysis time. If ATM (or the time part of ADTM) was imputed, ATMF must be populated and is required. See Section 3.1.3, Date and Time Imputation Flag Variables."
    },
    {
      "version": "ADaMIG v1.3",
      "dataStructureName": "Basic Data Structure",
      "variableSet": "Timing",
      "variableName": "ASTDT",
      "variableLabel": "Analysis Start Date",
      "type": "Num",
      "cdiscCtCodelistCodes": "",
      "cdiscCtCodelistSubmissionValues": "",
      "describedValueDomains": "",
      "valueListValue": "",
      "core": "Cond",
      "cdiscNotes": "The start date associated with AVAL and/or AVALC. ASTDT and AENDT may be useful for traceability when AVAL summarizes data collected over an interval of time, or when AVAL is a duration."
    },
    {
      "version": "ADaMIG v1.3",
      "dataStructureName": "Basic Data Structure",
      "variableSet": "Timing",
      "variableName": "ASTTM",
      "variableLabel": "Analysis Start Time",
      "type": "Num",
      "cdiscCtCodelistCodes": "",
      "cdiscCtCodelistSubmissionValues": "",
      "describedValueDomains": "",
      "valueListValue": "",
      "core": "Cond",
      "cdiscNotes": "The start time associated with AVAL and/or AVALC. ASTTM and AENTM may be useful for traceability when AVAL summarizes data collected over an interval of time, or when AVAL is a duration."
    },
    {
      "version": "ADaMIG v1.3",
      "dataStructureName": "Basic Data Structure",
      "variableSet": "Timing",
      "variableName": "ASTDTM",
      "variableLabel": "Analysis Start Datetime",
      "type": "Num",
      "cdiscCtCodelistCodes": "",
      "cdiscCtCodelistSubmissionValues": "",
      "describedValueDomains": "",
      "valueListValue": "",
      "core": "Cond",
      "cdiscNotes": "The start datetime associated with AVAL and/or AVALC. ASTDTM and AENDTM may be useful for traceability when AVAL summarizes data collected over an interval of time, or when AVAL is a duration."
    },
    {
      "version": "ADaMIG v1.3",
      "dataStructureName": "Basic Data Structure",
      "variableSet": "Timing",
      "variableName": "ASTDY",
      "variableLabel": "Analysis Start Relative Day",
      "type": "Num",
      "cdiscCtCodelistCodes": "",
      "cdiscCtCodelistSubmissionValues": "",
      "describedValueDomains": "",
      "valueListValue": "",
      "core": "Cond",
      "cdiscNotes": "The number of days from an anchor date (not necessarily DM.RFSTDTC) to ASTDT. See Section 3.1.2, Timing Variable Conventions. If a dataset contains more than one record per parameter per subject then, an SDTM or ADaM relative timing variable must be present (ASTDY would meet this requirement)."
    },
    {
      "version": "ADaMIG v1.3",
      "dataStructureName": "Basic Data Structure",
      "variableSet": "Timing",
      "variableName": "ASTDTF",
      "variableLabel": "Analysis Start Date Imputation Flag",
      "type": "Char",
      "cdiscCtCodelistCodes": "C81223",
      "cdiscCtCodelistSubmissionValues": "DATEFL",
      "describedValueDomains": "",
      "valueListValue": "",
      "core": "Cond",
      "cdiscNotes": "The level of imputation of analysis start date. If ASTDT (or the date part of ASTDTM) was imputed, ASTDTF must be populated and is required. See Section 3.1.3, Date and Time Imputation Flag Variables."
    },
    {
      "version": "ADaMIG v1.3",
      "dataStructureName": "Basic Data Structure",
      "variableSet": "Timing",
      "variableName": "ASTTMF",
      "variableLabel": "Analysis Start Time Imputation Flag",
      "type": "Char",
      "cdiscCtCodelistCodes": "C81226",
      "cdiscCtCodelistSubmissionValues": "TIMEFL",
      "describedValueDomains": "",
      "valueListValue": "",
      "core": "Cond",
      "cdiscNotes": "The level of imputation of analysis start time. If ASTTM (or the time part of ASTDTM) was imputed, ASTTMF must be populated and is required. See Section 3.1.3, Date and Time Imputation Flag Variables."
    },
    {
      "version": "ADaMIG v1.3",
      "dataStructureName": "Basic Data Structure",
      "variableSet": "Timing",
      "variableName": "AENDT",
      "variableLabel": "Analysis End Date",
      "type": "Num",
      "cdiscCtCodelistCodes": "",
      "cdiscCtCodelistSubmissionValues": "",
      "describedValueDomains": "",
      "valueListValue": "",
      "core": "Cond",
      "cdiscNotes": "The end date associated with AVAL and/or AVALC. See also ASTDT."
    },
    {
      "version": "ADaMIG v1.3",
      "dataStructureName": "Basic Data Structure",
      "variableSet": "Timing",
      "variableName": "AENTM",
      "variableLabel": "Analysis End Time",
      "type": "Num",
      "cdiscCtCodelistCodes": "",
      "cdiscCtCodelistSubmissionValues": "",
      "describedValueDomains": "",
      "valueListValue": "",
      "core": "Cond",
      "cdiscNotes": "The end time associated with AVAL and/or AVALC. See also ASTTM."
    },
    {
      "version": "ADaMIG v1.3",
      "dataStructureName": "Basic Data Structure",
      "variableSet": "Timing",
      "variableName": "AENDTM",
      "variableLabel": "Analysis End Datetime",
      "type": "Num",
      "cdiscCtCodelistCodes": "",
      "cdiscCtCodelistSubmissionValues": "",
      "describedValueDomains": "",
      "valueListValue": "",
      "core": "Cond",
      "cdiscNotes": "The end datetime associated with AVAL and/or AVALC. See also ASTDTM."
    },
    {
      "version": "ADaMIG v1.3",
      "dataStructureName": "Basic Data Structure",
      "variableSet": "Timing",
      "variableName": "AENDY",
      "variableLabel": "Analysis End Relative Day",
      "type": "Num",
      "cdiscCtCodelistCodes": "",
      "cdiscCtCodelistSubmissionValues": "",
      "describedValueDomains": "",
      "valueListValue": "",
      "core": "Cond",
      "cdiscNotes": "The number of days from an anchor date (not necessarily DM.RFSTDTC) to AENDT. See Section 3.1.2, Timing Variable Conventions. If a dataset contains more than one record per parameter per subject, then an SDTM or ADaM relative timing variable must be present (AENDY would meet this requirement)."
    },
    {
      "version": "ADaMIG v1.3",
      "dataStructureName": "Basic Data Structure",
      "variableSet": "Timing",
      "variableName": "AENDTF",
      "variableLabel": "Analysis End Date Imputation Flag",
      "type": "Char",
      "cdiscCtCodelistCodes": "C81223",
      "cdiscCtCodelistSubmissionValues": "DATEFL",
      "describedValueDomains": "",
      "valueListValue": "",
      "core": "Cond",
      "cdiscNotes": "The level of imputation of analysis end date. If AENDT (or the date part of AENDTM) was imputed, AENDTF must be populated and is required. See Section 3.1.3, Date and Time Imputation Flag Variables."
    },
    {
      "version": "ADaMIG v1.3",
      "dataStructureName": "Basic Data Structure",
      "variableSet": "Timing",
      "variableName": "AENTMF",
      "variableLabel": "Analysis End Time Imputation Flag",
      "type": "Char",
      "cdiscCtCodelistCodes": "C81226",
      "cdiscCtCodelistSubmissionValues": "TIMEFL",
      "describedValueDomains": "",
      "valueListValue": "",
      "core": "Cond",
      "cdiscNotes": "The level of imputation of analysis end time. If AENTM (or the time part of AENDTM) was imputed, AENTMF must be populated and is required. See Section 3.1.3, Date and Time Imputation Flag Variables."
    },
    {
      "version": "ADaMIG v1.3",
      "dataStructureName": "Basic Data Structure",
      "variableSet": "Timing",
      "variableName": "AVISIT",
      "variableLabel": "Analysis Visit",
      "type": "Char",
      "cdiscCtCodelistCodes": "",
      "cdiscCtCodelistSubmissionValues": "",
      "describedValueDomains": "",
      "valueListValue": "",
      "core": "Cond",
      "cdiscNotes": "The analysis visit description; required if an analysis is done by nominal, assigned or analysis visit. AVISIT may contain the visit names as observed (i.e., from SDTM VISIT), derived visit names, time window names, conceptual descriptions (such as Average, Endpoint, etc.), or a combination of any of these. AVISIT is a derived field and does not have to map to VISIT from the SDTM. AVISIT represents the analysis visit of the record, but it does not mean that the record was analyzed. There are often multiple records for the same subject and parameter that have the same value of AVISIT. ANLzzFL and other variables may be needed to identify the records selected for any given analysis. See Section 3.3.8, Indicator Variables for BDS Datasets, for information about flag variables. AVISIT should be unique for a given analysis visit window. In the event that a record does not fall within any predefined analysis timepoint window, AVISIT can be populated in any way that the producer chooses to indicate this fact (e.g., blank or \"Not Windowed\"). The way that AVISIT is calculated, including the variables used in its derivation, should be indicated in the variable metadata for AVISIT. The values and the rules for deriving AVISIT may be different for different parameters within the same dataset. Values of AVISIT are producer-defined, and are often directly usable in Clinical Study Report displays. If a dataset contains more than one record per parameter per subject, then an SDTM or ADaM relative timing variable must be present (AVISIT could meet this requirement)."
    },
    {
      "version": "ADaMIG v1.3",
      "dataStructureName": "Basic Data Structure",
      "variableSet": "Timing",
      "variableName": "AVISITN",
      "variableLabel": "Analysis Visit (N)",
      "type": "Num",
      "cdiscCtCodelistCodes": "",
      "cdiscCtCodelistSubmissionValues": "",
      "describedValueDomains": "",
      "valueListValue": "",
      "core": "Perm",
      "cdiscNotes": "Numeric representation of AVISIT. Since study visits are usually defined by certain timepoints, defining AVISITN so that it represents the timepoint associated with the visit can facilitate plotting and interpretation of the values. Alternatively, AVISITN may be a protocol visit number, a cycle number, an analysis visit number, or any other number logically related to AVISIT or useful for sorting that is needed for analysis. \\n There must be a one-to-one relationship between AVISITN and AVISIT (i.e., AVISITN has the same value for each distinct AVISIT) within a parameter. A best practice is to extend the one-to-one relationship to within a study, but this is not an ADaM requirement. In the event that a record does not fall within any predefined analysis timepoint window, AVISITN can be populated in any way that the producer chooses to indicate this fact (e.g., may be null). Values of AVISITN are producer-defined. \\n AVISITN cannot be present unless AVISIT is also present. On a given record, AVISITN cannot be populated if AVISIT is null. AVISITN can be null when AVISIT is populated, as long as the one-to-one relationship is maintained within a parameter on all rows on which both variables are populated."
    },
    {
      "version": "ADaMIG v1.3",
      "dataStructureName": "Basic Data Structure",
      "variableSet": "Timing",
      "variableName": "ATPT",
      "variableLabel": "Analysis Timepoint",
      "type": "Char",
      "cdiscCtCodelistCodes": "",
      "cdiscCtCodelistSubmissionValues": "",
      "describedValueDomains": "",
      "valueListValue": "",
      "core": "Cond",
      "cdiscNotes": "The analysis timepoint description; required if an analysis is done by nominal, assigned or analysis timepoint (instead of or in addition to by-visit). Timepoints are relative to ATPTREF. ATPT may contain the timepoint names as observed (i.e., from SDTM --TPT), derived timepoint names, time window names, conceptual descriptions (such as Average, Endpoint, etc.), or a combination of any of these. This variable is often used in conjunction with AVISIT. ATPT represents the analysis timepoint of the record. \\n ATPT can be within an analysis visit (e.g., blood pressure assessments at 10 min, 20 min, and 30 min post-dose at AVISIT=Week 1) or can be unrelated to AVISIT (e.g., migraine symptoms 30 min, 60 min, and 120 min post-dose for attack 1). \\n The way that ATPT is calculated, including the variables used in its derivation, should be indicated in the variable metadata for ATPT. The values and the rules for deriving ATPT may be different for different parameters within the same dataset. Values of ATPT are producer-defined, and are often directly usable in Clinical Study Report displays. \\n If a dataset contains more than one record per parameter per subject, then an SDTM or ADaM relative timing variable must be present (ATPT could meet this requirement)."
    },
    {
      "version": "ADaMIG v1.3",
      "dataStructureName": "Basic Data Structure",
      "variableSet": "Timing",
      "variableName": "ATPTN",
      "variableLabel": "Analysis Timepoint (N)",
      "type": "Num",
      "cdiscCtCodelistCodes": "",
      "cdiscCtCodelistSubmissionValues": "",
      "describedValueDomains": "",
      "valueListValue": "",
      "core": "Perm",
      "cdiscNotes": "Numeric representation of ATPT. Defining ATPTN so that its values represent the planned timepoints (e.g., minutes or hours after dosing) is not required but can facilitate plotting and interpretation of the values. There must be a one-to-one relationship between ATPTN and ATPT within a parameter. (Best practice would dictate that the mapping would be one-to-one within a study, but that is not an ADaM requirement.) \\n ATPTN cannot be present unless ATPT is also present. When ATPT and ATPTN are present, then on a given record, either both must be populated or both must be null."
    },
    {
      "version": "ADaMIG v1.3",
      "dataStructureName": "Basic Data Structure",
      "variableSet": "Timing",
      "variableName": "ATPTREF",
      "variableLabel": "Analysis Timepoint Reference",
      "type": "Char",
      "cdiscCtCodelistCodes": "",
      "cdiscCtCodelistSubmissionValues": "",
      "describedValueDomains": "",
      "valueListValue": "",
      "core": "Perm",
      "cdiscNotes": "Description of the fixed reference point referred to by ATPT/ATPTN (e.g., time of dose)."
    },
    {
      "version": "ADaMIG v1.3",
      "dataStructureName": "Basic Data Structure",
      "variableSet": "Timing",
      "variableName": "APHASE",
      "variableLabel": "Phase",
      "type": "Char",
      "cdiscCtCodelistCodes": "",
      "cdiscCtCodelistSubmissionValues": "",
      "describedValueDomains": "",
      "valueListValue": "",
      "core": "Perm",
      "cdiscNotes": "APHASE is a categorization of timing within a study, for example a higher-level categorization of APERIOD or an analysis epoch. For example, APHASE could describe spans of time for SCREENING, ON TREATMENT, and FOLLOW-UP. APHASE may be used alone or in addition to APERIOD. APHASE is independent of TRTxxP within ADSL. APHASE may be populated for spans of time where a subject is not on treatment. The value of APHASE (if populated) must be one of the values found in the ADSL APHASEw variables."
    },
    {
      "version": "ADaMIG v1.3",
      "dataStructureName": "Basic Data Structure",
      "variableSet": "Timing",
      "variableName": "APHASEN",
      "variableLabel": "Phase (N)",
      "type": "Num",
      "cdiscCtCodelistCodes": "",
      "cdiscCtCodelistSubmissionValues": "",
      "describedValueDomains": "",
      "valueListValue": "",
      "core": "Perm",
      "cdiscNotes": "Numeric representation of APHASE. The value of APHASEN (if populated) must be one of the w values found in the ADSL APHASEw variable names. There must be a one-to-one relationship between APHASEN and APHASE within a study, which must be the same as the one-to-one mapping between w and APHASEw in ADSL. \\n APHASEN cannot be present unless APHASE is also present. When APHASE and APHASEN are present, then on a given record, either both must be populated or both must be null."
    },
    {
      "version": "ADaMIG v1.3",
      "dataStructureName": "Basic Data Structure",
      "variableSet": "Timing",
      "variableName": "APERIOD",
      "variableLabel": "Period",
      "type": "Num",
      "cdiscCtCodelistCodes": "",
      "cdiscCtCodelistSubmissionValues": "",
      "describedValueDomains": "",
      "valueListValue": "",
      "core": "Cond",
      "cdiscNotes": "APERIOD is a record-level timing variable that represents the analysis period within the study associated with the record for analysis purposes. The value of APERIOD (if populated) must be one of the xx values found in the ADSL TRTxxP variable names. APERIOD is required if ASPER is present. APERIOD must be populated on all records where ASPER is populated. \\n"
    },
    {
      "version": "ADaMIG v1.3",
      "dataStructureName": "Basic Data Structure",
      "variableSet": "Timing",
      "variableName": "APERIODC",
      "variableLabel": "Period (C)",
      "type": "Char",
      "cdiscCtCodelistCodes": "",
      "cdiscCtCodelistSubmissionValues": "",
      "describedValueDomains": "",
      "valueListValue": "",
      "core": "Perm",
      "cdiscNotes": "Text characterizing to which analysis period the record belongs. There must be a one-to-one relationship between APERIODC and APERIOD within a study. \\n APERIODC cannot be present unless APERIOD is also present. When APERIOD and APERIODC are present, then on a given record, either both must be populated or both must be null."
    },
    {
      "version": "ADaMIG v1.3",
      "dataStructureName": "Basic Data Structure",
      "variableSet": "Timing",
      "variableName": "ASPER",
      "variableLabel": "Subperiod within Period",
      "type": "Num",
      "cdiscCtCodelistCodes": "",
      "cdiscCtCodelistSubmissionValues": "",
      "describedValueDomains": "",
      "valueListValue": "",
      "core": "Perm",
      "cdiscNotes": "The numeric value characterizing a sublevel within APERIOD to which the record belongs. Within each APERIOD, the first ASPER is 1 (i.e., it resets to 1 when the APERIOD value changes). The value of ASPER (if populated) must be one of the w values found in the ADSL PxxSw variable names. \\n"
    },
    {
      "version": "ADaMIG v1.3",
      "dataStructureName": "Basic Data Structure",
      "variableSet": "Timing",
      "variableName": "ASPERC",
      "variableLabel": "Subperiod within Period (C)",
      "type": "Char",
      "cdiscCtCodelistCodes": "",
      "cdiscCtCodelistSubmissionValues": "",
      "describedValueDomains": "",
      "valueListValue": "",
      "core": "Perm",
      "cdiscNotes": "Text characterizing to which subperiod the record belongs. There must be a one-to-one relationship between ASPERC and ASPER within a value of APERIOD, which must be the same as the one-to-one mapping between PxxSw and w in ADSL, where xx is equal to the value of APERIOD. The value of ASPERC (if populated) must be one of the values found in the ADSL PxxSw variables. \\n ASPERC cannot be present unless ASPER is also present. When ASPER and ASPERC are present, then on a given record, either both must be populated or both must be null."
    },
    {
      "version": "ADaMIG v1.3",
      "dataStructureName": "Basic Data Structure",
      "variableSet": "Timing",
      "variableName": "ARELTM",
      "variableLabel": "Analysis Relative Time",
      "type": "Num",
      "cdiscCtCodelistCodes": "",
      "cdiscCtCodelistSubmissionValues": "",
      "describedValueDomains": "",
      "valueListValue": "",
      "core": "Perm",
      "cdiscNotes": "The time relative to an anchor time. The amount of time from an anchor time to ATM. When ARELTM is present, the anchor time variable and ARELTMU must also be included in the dataset, and the anchor time variable must be identified in the metadata for ARELTM."
    },
    {
      "version": "ADaMIG v1.3",
      "dataStructureName": "Basic Data Structure",
      "variableSet": "Timing",
      "variableName": "ARELTMU",
      "variableLabel": "Analysis Relative Time Unit",
      "type": "Char",
      "cdiscCtCodelistCodes": "",
      "cdiscCtCodelistSubmissionValues": "",
      "describedValueDomains": "",
      "valueListValue": "",
      "core": "Perm",
      "cdiscNotes": "The units of ARELTM. For example, \"HOURS\" or \"MINUTES.\" ARELTMU is required if ARELTM is present."
    },
    {
      "version": "ADaMIG v1.3",
      "dataStructureName": "Basic Data Structure",
      "variableSet": "Period, Subperiod, and Phase Start and End Timing",
      "variableName": "APERSDT",
      "variableLabel": "Period Start Date",
      "type": "Num",
      "cdiscCtCodelistCodes": "",
      "cdiscCtCodelistSubmissionValues": "",
      "describedValueDomains": "",
      "valueListValue": "",
      "core": "Perm",
      "cdiscNotes": "The starting date for the period defined by APERIOD."
    },
    {
      "version": "ADaMIG v1.3",
      "dataStructureName": "Basic Data Structure",
      "variableSet": "Period, Subperiod, and Phase Start and End Timing",
      "variableName": "APERSTM",
      "variableLabel": "Period Start Time",
      "type": "Num",
      "cdiscCtCodelistCodes": "",
      "cdiscCtCodelistSubmissionValues": "",
      "describedValueDomains": "",
      "valueListValue": "",
      "core": "Perm",
      "cdiscNotes": "The starting time for the period defined by APERIOD."
    },
    {
      "version": "ADaMIG v1.3",
      "dataStructureName": "Basic Data Structure",
      "variableSet": "Period, Subperiod, and Phase Start and End Timing",
      "variableName": "APERSDTM",
      "variableLabel": "Period Start Datetime",
      "type": "Num",
      "cdiscCtCodelistCodes": "",
      "cdiscCtCodelistSubmissionValues": "",
      "describedValueDomains": "",
      "valueListValue": "",
      "core": "Perm",
      "cdiscNotes": "The starting datetime for the period defined by APERIOD."
    },
    {
      "version": "ADaMIG v1.3",
      "dataStructureName": "Basic Data Structure",
      "variableSet": "Period, Subperiod, and Phase Start and End Timing",
      "variableName": "APERSDTF",
      "variableLabel": "Period Start Date Imput. Flag",
      "type": "Char",
      "cdiscCtCodelistCodes": "C81223",
      "cdiscCtCodelistSubmissionValues": "DATEFL",
      "describedValueDomains": "",
      "valueListValue": "",
      "core": "Cond",
      "cdiscNotes": "The level of imputation of period start date. If APERSDT (or the date part of APERSDTM) was imputed, APERSDTF must be populated and is required. See Section 3.1.3, Date and Time Imputation Flag Variables."
    },
    {
      "version": "ADaMIG v1.3",
      "dataStructureName": "Basic Data Structure",
      "variableSet": "Period, Subperiod, and Phase Start and End Timing",
      "variableName": "APERSTMF",
      "variableLabel": "Period Start Time Imput. Flag",
      "type": "Char",
      "cdiscCtCodelistCodes": "C81226",
      "cdiscCtCodelistSubmissionValues": "TIMEFL",
      "describedValueDomains": "",
      "valueListValue": "",
      "core": "Cond",
      "cdiscNotes": "The level of imputation of period start time. If APERSTM (or the time part of APERSDTM) was imputed, APERSTMF must be populated and is required. See Section 3.1.3, Date and Time Imputation Flag Variables."
    },
    {
      "version": "ADaMIG v1.3",
      "dataStructureName": "Basic Data Structure",
      "variableSet": "Period, Subperiod, and Phase Start and End Timing",
      "variableName": "APEREDT",
      "variableLabel": "Period End Date",
      "type": "Num",
      "cdiscCtCodelistCodes": "",
      "cdiscCtCodelistSubmissionValues": "",
      "describedValueDomains": "",
      "valueListValue": "",
      "core": "Perm",
      "cdiscNotes": "The ending date for the period defined by APERIOD."
    },
    {
      "version": "ADaMIG v1.3",
      "dataStructureName": "Basic Data Structure",
      "variableSet": "Period, Subperiod, and Phase Start and End Timing",
      "variableName": "APERETM",
      "variableLabel": "Period End Time",
      "type": "Num",
      "cdiscCtCodelistCodes": "",
      "cdiscCtCodelistSubmissionValues": "",
      "describedValueDomains": "",
      "valueListValue": "",
      "core": "Perm",
      "cdiscNotes": "The ending time for the period defined by APERIOD."
    },
    {
      "version": "ADaMIG v1.3",
      "dataStructureName": "Basic Data Structure",
      "variableSet": "Period, Subperiod, and Phase Start and End Timing",
      "variableName": "APEREDTM",
      "variableLabel": "Period End Datetime",
      "type": "Num",
      "cdiscCtCodelistCodes": "",
      "cdiscCtCodelistSubmissionValues": "",
      "describedValueDomains": "",
      "valueListValue": "",
      "core": "Perm",
      "cdiscNotes": "The ending datetime for the period defined by APERIOD."
    },
    {
      "version": "ADaMIG v1.3",
      "dataStructureName": "Basic Data Structure",
      "variableSet": "Period, Subperiod, and Phase Start and End Timing",
      "variableName": "APEREDTF",
      "variableLabel": "Period End Date Imput. Flag",
      "type": "Char",
      "cdiscCtCodelistCodes": "C81223",
      "cdiscCtCodelistSubmissionValues": "DATEFL",
      "describedValueDomains": "",
      "valueListValue": "",
      "core": "Cond",
      "cdiscNotes": "The level of imputation of period end date. If APEREDT (or the date part of APEREDTM) was imputed, APEREDTF must be populated and is required. See Section 3.1.3, Date and Time Imputation Flag Variables."
    },
    {
      "version": "ADaMIG v1.3",
      "dataStructureName": "Basic Data Structure",
      "variableSet": "Period, Subperiod, and Phase Start and End Timing",
      "variableName": "APERETMF",
      "variableLabel": "Period End Time Imput. Flag",
      "type": "Char",
      "cdiscCtCodelistCodes": "C81226",
      "cdiscCtCodelistSubmissionValues": "TIMEFL",
      "describedValueDomains": "",
      "valueListValue": "",
      "core": "Cond",
      "cdiscNotes": "The level of imputation of period end time. If APERETM (or the time part of APEREDTM) was imputed, APERETMF must be populated and is required. See Section 3.1.3, Date and Time Imputation Flag Variables."
    },
    {
      "version": "ADaMIG v1.3",
      "dataStructureName": "Basic Data Structure",
      "variableSet": "Period, Subperiod, and Phase Start and End Timing",
      "variableName": "ASPRSDT",
      "variableLabel": "Subperiod Start Date",
      "type": "Num",
      "cdiscCtCodelistCodes": "",
      "cdiscCtCodelistSubmissionValues": "",
      "describedValueDomains": "",
      "valueListValue": "",
      "core": "Perm",
      "cdiscNotes": "The starting date for the subperiod defined by ASPER."
    },
    {
      "version": "ADaMIG v1.3",
      "dataStructureName": "Basic Data Structure",
      "variableSet": "Period, Subperiod, and Phase Start and End Timing",
      "variableName": "ASPRSTM",
      "variableLabel": "Subperiod Start Time",
      "type": "Num",
      "cdiscCtCodelistCodes": "",
      "cdiscCtCodelistSubmissionValues": "",
      "describedValueDomains": "",
      "valueListValue": "",
      "core": "Perm",
      "cdiscNotes": "The starting time for the subperiod defined by ASPER."
    },
    {
      "version": "ADaMIG v1.3",
      "dataStructureName": "Basic Data Structure",
      "variableSet": "Period, Subperiod, and Phase Start and End Timing",
      "variableName": "ASPRSDTM",
      "variableLabel": "Subperiod Start Datetime",
      "type": "Num",
      "cdiscCtCodelistCodes": "",
      "cdiscCtCodelistSubmissionValues": "",
      "describedValueDomains": "",
      "valueListValue": "",
      "core": "Perm",
      "cdiscNotes": "The starting datetime for the subperiod defined by ASPER."
    },
    {
      "version": "ADaMIG v1.3",
      "dataStructureName": "Basic Data Structure",
      "variableSet": "Period, Subperiod, and Phase Start and End Timing",
      "variableName": "ASPRSDTF",
      "variableLabel": "Subperiod Start Date Imput. Flag",
      "type": "Char",
      "cdiscCtCodelistCodes": "C81223",
      "cdiscCtCodelistSubmissionValues": "DATEFL",
      "describedValueDomains": "",
      "valueListValue": "",
      "core": "Cond",
      "cdiscNotes": "The level of imputation of subperiod start date. If ASPRSDT (or the date part of ASPRSDTM) was imputed, ASPRSDTF must be populated and is required. See Section 3.1.3, Date and Time Imputation Flag Variables."
    },
    {
      "version": "ADaMIG v1.3",
      "dataStructureName": "Basic Data Structure",
      "variableSet": "Period, Subperiod, and Phase Start and End Timing",
      "variableName": "ASPRSTMF",
      "variableLabel": "Subperiod Start Time Imput. Flag",
      "type": "Char",
      "cdiscCtCodelistCodes": "C81226",
      "cdiscCtCodelistSubmissionValues": "TIMEFL",
      "describedValueDomains": "",
      "valueListValue": "",
      "core": "Cond",
      "cdiscNotes": "The level of imputation of subperiod start time. If ASPRSTM (or the time part of ASPRSDTM) was imputed, ASPRSTMF must be populated and is required. See Section 3.1.3, Date and Time Imputation Flag Variables."
    },
    {
      "version": "ADaMIG v1.3",
      "dataStructureName": "Basic Data Structure",
      "variableSet": "Period, Subperiod, and Phase Start and End Timing",
      "variableName": "ASPREDT",
      "variableLabel": "Subperiod End Date",
      "type": "Num",
      "cdiscCtCodelistCodes": "",
      "cdiscCtCodelistSubmissionValues": "",
      "describedValueDomains": "",
      "valueListValue": "",
      "core": "Perm",
      "cdiscNotes": "The ending date for the subperiod defined by ASPER."
    },
    {
      "version": "ADaMIG v1.3",
      "dataStructureName": "Basic Data Structure",
      "variableSet": "Period, Subperiod, and Phase Start and End Timing",
      "variableName": "ASPRETM",
      "variableLabel": "Subperiod End Time",
      "type": "Num",
      "cdiscCtCodelistCodes": "",
      "cdiscCtCodelistSubmissionValues": "",
      "describedValueDomains": "",
      "valueListValue": "",
      "core": "Perm",
      "cdiscNotes": "The ending time for the subperiod defined by ASPER."
    },
    {
      "version": "ADaMIG v1.3",
      "dataStructureName": "Basic Data Structure",
      "variableSet": "Period, Subperiod, and Phase Start and End Timing",
      "variableName": "ASPREDTM",
      "variableLabel": "Subperiod End Datetime",
      "type": "Num",
      "cdiscCtCodelistCodes": "",
      "cdiscCtCodelistSubmissionValues": "",
      "describedValueDomains": "",
      "valueListValue": "",
      "core": "Perm",
      "cdiscNotes": "The ending datetime for the subperiod defined by ASPER."
    },
    {
      "version": "ADaMIG v1.3",
      "dataStructureName": "Basic Data Structure",
      "variableSet": "Period, Subperiod, and Phase Start and End Timing",
      "variableName": "ASPREDTF",
      "variableLabel": "Subperiod End Date Imput. Flag",
      "type": "Char",
      "cdiscCtCodelistCodes": "C81223",
      "cdiscCtCodelistSubmissionValues": "DATEFL",
      "describedValueDomains": "",
      "valueListValue": "",
      "core": "Cond",
      "cdiscNotes": "The level of imputation of subperiod end date. If ASPREDT (or the date part of ASPREDTM) was imputed, ASPREDTF must be populated and is required. See Section 3.1.3, Date and Time Imputation Flag Variables."
    },
    {
      "version": "ADaMIG v1.3",
      "dataStructureName": "Basic Data Structure",
      "variableSet": "Period, Subperiod, and Phase Start and End Timing",
      "variableName": "ASPRETMF",
      "variableLabel": "Subperiod End Time Imput. Flag",
      "type": "Char",
      "cdiscCtCodelistCodes": "C81226",
      "cdiscCtCodelistSubmissionValues": "TIMEFL",
      "describedValueDomains": "",
      "valueListValue": "",
      "core": "Cond",
      "cdiscNotes": "The level of imputation of subperiod end time. If ASPRETM (or the time part of ASPREDTM) was imputed, ASPRETMF must be populated and is required. See Section 3.1.3, Date and Time Imputation Flag Variables."
    },
    {
      "version": "ADaMIG v1.3",
      "dataStructureName": "Basic Data Structure",
      "variableSet": "Period, Subperiod, and Phase Start and End Timing",
      "variableName": "PHSDT",
      "variableLabel": "Phase Start Date",
      "type": "Num",
      "cdiscCtCodelistCodes": "",
      "cdiscCtCodelistSubmissionValues": "",
      "describedValueDomains": "",
      "valueListValue": "",
      "core": "Perm",
      "cdiscNotes": "The starting date for the phase defined by APHASE."
    },
    {
      "version": "ADaMIG v1.3",
      "dataStructureName": "Basic Data Structure",
      "variableSet": "Period, Subperiod, and Phase Start and End Timing",
      "variableName": "PHSTM",
      "variableLabel": "Phase Start Time",
      "type": "Num",
      "cdiscCtCodelistCodes": "",
      "cdiscCtCodelistSubmissionValues": "",
      "describedValueDomains": "",
      "valueListValue": "",
      "core": "Perm",
      "cdiscNotes": "The starting time for the phase defined by APHASE."
    },
    {
      "version": "ADaMIG v1.3",
      "dataStructureName": "Basic Data Structure",
      "variableSet": "Period, Subperiod, and Phase Start and End Timing",
      "variableName": "PHSDTM",
      "variableLabel": "Phase Start Datetime",
      "type": "Num",
      "cdiscCtCodelistCodes": "",
      "cdiscCtCodelistSubmissionValues": "",
      "describedValueDomains": "",
      "valueListValue": "",
      "core": "Perm",
      "cdiscNotes": "The starting datetime for the phase defined by APHASE."
    },
    {
      "version": "ADaMIG v1.3",
      "dataStructureName": "Basic Data Structure",
      "variableSet": "Period, Subperiod, and Phase Start and End Timing",
      "variableName": "PHSDTF",
      "variableLabel": "Phase Start Date Imput. Flag",
      "type": "Char",
      "cdiscCtCodelistCodes": "C81223",
      "cdiscCtCodelistSubmissionValues": "DATEFL",
      "describedValueDomains": "",
      "valueListValue": "",
      "core": "Cond",
      "cdiscNotes": "The level of imputation of phase start date. If PHSDT (or the date part of PHSDTM) was imputed, PHSDTF must be populated and is required. See Section 3.1.3, Date and Time Imputation Flag Variables."
    },
    {
      "version": "ADaMIG v1.3",
      "dataStructureName": "Basic Data Structure",
      "variableSet": "Period, Subperiod, and Phase Start and End Timing",
      "variableName": "PHSTMF",
      "variableLabel": "Phase Start Time Imput. Flag",
      "type": "Char",
      "cdiscCtCodelistCodes": "C81226",
      "cdiscCtCodelistSubmissionValues": "TIMEFL",
      "describedValueDomains": "",
      "valueListValue": "",
      "core": "Cond",
      "cdiscNotes": "The level of imputation of phase start time. If PHSTM (or the time part of PHSDTM) was imputed, PHSTMF must be populated and is required. See Section 3.1.3, Date and Time Imputation Flag Variables."
    },
    {
      "version": "ADaMIG v1.3",
      "dataStructureName": "Basic Data Structure",
      "variableSet": "Period, Subperiod, and Phase Start and End Timing",
      "variableName": "PHEDT",
      "variableLabel": "Phase End Date",
      "type": "Num",
      "cdiscCtCodelistCodes": "",
      "cdiscCtCodelistSubmissionValues": "",
      "describedValueDomains": "",
      "valueListValue": "",
      "core": "Perm",
      "cdiscNotes": "The ending date for the phase defined by APHASE."
    },
    {
      "version": "ADaMIG v1.3",
      "dataStructureName": "Basic Data Structure",
      "variableSet": "Period, Subperiod, and Phase Start and End Timing",
      "variableName": "PHETM",
      "variableLabel": "Phase End Time",
      "type": "Num",
      "cdiscCtCodelistCodes": "",
      "cdiscCtCodelistSubmissionValues": "",
      "describedValueDomains": "",
      "valueListValue": "",
      "core": "Perm",
      "cdiscNotes": "The ending time for the phase defined by APHASE."
    },
    {
      "version": "ADaMIG v1.3",
      "dataStructureName": "Basic Data Structure",
      "variableSet": "Period, Subperiod, and Phase Start and End Timing",
      "variableName": "PHEDTM",
      "variableLabel": "Phase End Datetime",
      "type": "Num",
      "cdiscCtCodelistCodes": "",
      "cdiscCtCodelistSubmissionValues": "",
      "describedValueDomains": "",
      "valueListValue": "",
      "core": "Perm",
      "cdiscNotes": "The ending datetime for the phase defined by APHASE."
    },
    {
      "version": "ADaMIG v1.3",
      "dataStructureName": "Basic Data Structure",
      "variableSet": "Period, Subperiod, and Phase Start and End Timing",
      "variableName": "PHEDTF",
      "variableLabel": "Phase End Date Imput. Flag",
      "type": "Char",
      "cdiscCtCodelistCodes": "C81223",
      "cdiscCtCodelistSubmissionValues": "DATEFL",
      "describedValueDomains": "",
      "valueListValue": "",
      "core": "Cond",
      "cdiscNotes": "The level of imputation of phase end date. If PHEDT (or the date part of PHEDTM) was imputed, PHEDTF must be populated and is required. See Section 3.1.3, Date and Time Imputation Flag Variables."
    },
    {
      "version": "ADaMIG v1.3",
      "dataStructureName": "Basic Data Structure",
      "variableSet": "Period, Subperiod, and Phase Start and End Timing",
      "variableName": "PHETMF",
      "variableLabel": "Phase End Time Imput. Flag",
      "type": "Char",
      "cdiscCtCodelistCodes": "C81226",
      "cdiscCtCodelistSubmissionValues": "TIMEFL",
      "describedValueDomains": "",
      "valueListValue": "",
      "core": "Cond",
      "cdiscNotes": "The level of imputation of phase end time. If PHETM (or the time part of PHEDTM) was imputed, PHETMF must be populated and is required. See Section 3.1.3, Date and Time Imputation Flag Variables."
    },
    {
      "version": "ADaMIG v1.3",
      "dataStructureName": "Basic Data Structure",
      "variableSet": "Suffixes for User-Defined Timing",
      "variableName": "*DT",
      "variableLabel": "{Date}",
      "type": "Num",
      "cdiscCtCodelistCodes": "",
      "cdiscCtCodelistSubmissionValues": "",
      "describedValueDomains": "",
      "valueListValue": "",
      "core": "Perm",
      "cdiscNotes": "Analysis date not directly characterizing AVAL and/or AVALC in numeric format."
    },
    {
      "version": "ADaMIG v1.3",
      "dataStructureName": "Basic Data Structure",
      "variableSet": "Suffixes for User-Defined Timing",
      "variableName": "*TM",
      "variableLabel": "{Time}",
      "type": "Num",
      "cdiscCtCodelistCodes": "",
      "cdiscCtCodelistSubmissionValues": "",
      "describedValueDomains": "",
      "valueListValue": "",
      "core": "Perm",
      "cdiscNotes": "Analysis time not directly characterizing AVAL and/or AVALC in numeric format."
    },
    {
      "version": "ADaMIG v1.3",
      "dataStructureName": "Basic Data Structure",
      "variableSet": "Suffixes for User-Defined Timing",
      "variableName": "*DTM",
      "variableLabel": "{Datetime}",
      "type": "Num",
      "cdiscCtCodelistCodes": "",
      "cdiscCtCodelistSubmissionValues": "",
      "describedValueDomains": "",
      "valueListValue": "",
      "core": "Perm",
      "cdiscNotes": "Analysis datetime not directly characterizing AVAL and/or AVALC in numeric format."
    },
    {
      "version": "ADaMIG v1.3",
      "dataStructureName": "Basic Data Structure",
      "variableSet": "Suffixes for User-Defined Timing",
      "variableName": "*ADY",
      "variableLabel": "{Relative Day}",
      "type": "Num",
      "cdiscCtCodelistCodes": "",
      "cdiscCtCodelistSubmissionValues": "",
      "describedValueDomains": "",
      "valueListValue": "",
      "core": "Perm",
      "cdiscNotes": "Analysis relative day not directly characterizing AVAL and/or AVALC."
    },
    {
      "version": "ADaMIG v1.3",
      "dataStructureName": "Basic Data Structure",
      "variableSet": "Suffixes for User-Defined Timing",
      "variableName": "*DTF",
      "variableLabel": "{Date Imputation Flag}",
      "type": "Char",
      "cdiscCtCodelistCodes": "C81223",
      "cdiscCtCodelistSubmissionValues": "DATEFL",
      "describedValueDomains": "",
      "valueListValue": "",
      "core": "Cond",
      "cdiscNotes": "The level of imputation of *DT. If *DT (or the date part of *DTM) was imputed, *DTF must be populated and is required. See Section 3.1.3, Date and Time Imputation Flag Variables."
    },
    {
      "version": "ADaMIG v1.3",
      "dataStructureName": "Basic Data Structure",
      "variableSet": "Suffixes for User-Defined Timing",
      "variableName": "*TMF",
      "variableLabel": "{Time Imputation Flag}",
      "type": "Char",
      "cdiscCtCodelistCodes": "C81226",
      "cdiscCtCodelistSubmissionValues": "TIMEFL",
      "describedValueDomains": "",
      "valueListValue": "",
      "core": "Cond",
      "cdiscNotes": "The level of imputation of *TM. If *TM (or the time part of *DTM) was imputed, *TMF must be populated and is required. See Section 3.1.3, Date and Time Imputation Flag Variables."
    },
    {
      "version": "ADaMIG v1.3",
      "dataStructureName": "Basic Data Structure",
      "variableSet": "Suffixes for User-Defined Timing",
      "variableName": "*SDT",
      "variableLabel": "{Start Date}",
      "type": "Num",
      "cdiscCtCodelistCodes": "",
      "cdiscCtCodelistSubmissionValues": "",
      "describedValueDomains": "",
      "valueListValue": "",
      "core": "Perm",
      "cdiscNotes": "Starting analysis date not directly characterizing AVAL and/or AVALC in numeric format."
    },
    {
      "version": "ADaMIG v1.3",
      "dataStructureName": "Basic Data Structure",
      "variableSet": "Suffixes for User-Defined Timing",
      "variableName": "*STM",
      "variableLabel": "{Start Time}",
      "type": "Num",
      "cdiscCtCodelistCodes": "",
      "cdiscCtCodelistSubmissionValues": "",
      "describedValueDomains": "",
      "valueListValue": "",
      "core": "Perm",
      "cdiscNotes": "Starting analysis time not directly characterizing AVAL and/or AVALC in numeric format."
    },
    {
      "version": "ADaMIG v1.3",
      "dataStructureName": "Basic Data Structure",
      "variableSet": "Suffixes for User-Defined Timing",
      "variableName": "*SDTM",
      "variableLabel": "{Start Datetime}",
      "type": "Num",
      "cdiscCtCodelistCodes": "",
      "cdiscCtCodelistSubmissionValues": "",
      "describedValueDomains": "",
      "valueListValue": "",
      "core": "Perm",
      "cdiscNotes": "Starting analysis datetime not directly characterizing AVAL and/or AVALC in numeric format."
    },
    {
      "version": "ADaMIG v1.3",
      "dataStructureName": "Basic Data Structure",
      "variableSet": "Suffixes for User-Defined Timing",
      "variableName": "*SDY",
      "variableLabel": "{Relative Start Day}",
      "type": "Num",
      "cdiscCtCodelistCodes": "",
      "cdiscCtCodelistSubmissionValues": "",
      "describedValueDomains": "",
      "valueListValue": "",
      "core": "Perm",
      "cdiscNotes": "Starting analysis relative day not directly characterizing AVAL and/or AVALC."
    },
    {
      "version": "ADaMIG v1.3",
      "dataStructureName": "Basic Data Structure",
      "variableSet": "Suffixes for User-Defined Timing",
      "variableName": "*SDTF",
      "variableLabel": "{Start Date Imputation Flag}",
      "type": "Char",
      "cdiscCtCodelistCodes": "C81223",
      "cdiscCtCodelistSubmissionValues": "DATEFL",
      "describedValueDomains": "",
      "valueListValue": "",
      "core": "Cond",
      "cdiscNotes": "The level of imputation of *SDT. If *SDT (or the date part of *SDTM) was imputed, *SDTF must be populated and is required. See Section 3.1.3, Date and Time Imputation Flag Variables."
    },
    {
      "version": "ADaMIG v1.3",
      "dataStructureName": "Basic Data Structure",
      "variableSet": "Suffixes for User-Defined Timing",
      "variableName": "*STMF",
      "variableLabel": "{Start Time Imputation Flag}",
      "type": "Char",
      "cdiscCtCodelistCodes": "C81226",
      "cdiscCtCodelistSubmissionValues": "TIMEFL",
      "describedValueDomains": "",
      "valueListValue": "",
      "core": "Cond",
      "cdiscNotes": "The level of imputation of *STM. If *STM (or the time part of *SDTM) was imputed, *STMF must be populated and is required. See Section 3.1.3, Date and Time Imputation Flag Variables."
    },
    {
      "version": "ADaMIG v1.3",
      "dataStructureName": "Basic Data Structure",
      "variableSet": "Suffixes for User-Defined Timing",
      "variableName": "*EDT",
      "variableLabel": "{End Date}",
      "type": "Num",
      "cdiscCtCodelistCodes": "",
      "cdiscCtCodelistSubmissionValues": "",
      "describedValueDomains": "",
      "valueListValue": "",
      "core": "Perm",
      "cdiscNotes": "Ending analysis date not directly characterizing AVAL and/or AVALC in numeric format."
    },
    {
      "version": "ADaMIG v1.3",
      "dataStructureName": "Basic Data Structure",
      "variableSet": "Suffixes for User-Defined Timing",
      "variableName": "*ETM",
      "variableLabel": "{End Time}",
      "type": "Num",
      "cdiscCtCodelistCodes": "",
      "cdiscCtCodelistSubmissionValues": "",
      "describedValueDomains": "",
      "valueListValue": "",
      "core": "Perm",
      "cdiscNotes": "Ending analysis time not directly characterizing AVAL and/or AVALC in numeric format."
    },
    {
      "version": "ADaMIG v1.3",
      "dataStructureName": "Basic Data Structure",
      "variableSet": "Suffixes for User-Defined Timing",
      "variableName": "*EDTM",
      "variableLabel": "{End Datetime}",
      "type": "Num",
      "cdiscCtCodelistCodes": "",
      "cdiscCtCodelistSubmissionValues": "",
      "describedValueDomains": "",
      "valueListValue": "",
      "core": "Perm",
      "cdiscNotes": "Ending analysis datetime not directly characterizing AVAL and/or AVALC in numeric format."
    },
    {
      "version": "ADaMIG v1.3",
      "dataStructureName": "Basic Data Structure",
      "variableSet": "Suffixes for User-Defined Timing",
      "variableName": "*EDY",
      "variableLabel": "{Relative End Day}",
      "type": "Num",
      "cdiscCtCodelistCodes": "",
      "cdiscCtCodelistSubmissionValues": "",
      "describedValueDomains": "",
      "valueListValue": "",
      "core": "Perm",
      "cdiscNotes": "Ending analysis relative day not directly characterizing AVAL and/or AVALC."
    },
    {
      "version": "ADaMIG v1.3",
      "dataStructureName": "Basic Data Structure",
      "variableSet": "Suffixes for User-Defined Timing",
      "variableName": "*EDTF",
      "variableLabel": "{End Date Imputation Flag}",
      "type": "Char",
      "cdiscCtCodelistCodes": "C81223",
      "cdiscCtCodelistSubmissionValues": "DATEFL",
      "describedValueDomains": "",
      "valueListValue": "",
      "core": "Cond",
      "cdiscNotes": "The level of imputation of *EDT. If *EDT (or the date part of *EDTM) was imputed, *EDTF must be populated and is required. See Section 3.1.3, Date and Time Imputation Flag Variables."
    },
    {
      "version": "ADaMIG v1.3",
      "dataStructureName": "Basic Data Structure",
      "variableSet": "Suffixes for User-Defined Timing",
      "variableName": "*ETMF",
      "variableLabel": "{End Time Imputation Flag}",
      "type": "Char",
      "cdiscCtCodelistCodes": "C81226",
      "cdiscCtCodelistSubmissionValues": "TIMEFL",
      "describedValueDomains": "",
      "valueListValue": "",
      "core": "Cond",
      "cdiscNotes": "The level of imputation of *ETM. If *ETM (or the time part of *EDTM) was imputed, *ETMF must be populated and is required. See Section 3.1.3, Date and Time Imputation Flag Variables."
    },
    {
      "version": "ADaMIG v1.3",
      "dataStructureName": "Basic Data Structure",
      "variableSet": "Analysis Parameter",
      "variableName": "PARAM",
      "variableLabel": "Parameter",
      "type": "Char",
      "cdiscCtCodelistCodes": "",
      "cdiscCtCodelistSubmissionValues": "",
      "describedValueDomains": "",
      "valueListValue": "",
      "core": "Req",
      "cdiscNotes": "The description of the analysis parameter. PARAM must include all descriptive and qualifying information relevant to the analysis purpose of the parameter. \\n Some examples are: \"Supine Systolic Blood Pressure (mm Hg)\", \"Log10 (Weight (kg))\", \"Time to First Hypertension Event (Days)\", and \"Estimated Tumor Growth Rate\". PARAM should be sufficient to describe unambiguously the contents of AVAL and/or AVALC. \\n Examples of qualifying information that might be relevant to analysis, and are therefore candidates for inclusion in PARAM, are units, specimen type, location, position, machine type, and transformation function. There is no need to include qualifiers that are not relevant to the analysis of PARAM. In contrast to SDTM --TEST, no additional variable is needed to further qualify PARAM. \\n PARAM is restricted to a maximum of 200 characters. If the value of PARAM will be used as a variable label in a transposed dataset, then the producer may wish to limit the value of PARAM to 40 characters. Such limitation to 40 characters should not compromise the integrity of the description. \\n PARAM is often directly usable in Clinical Study Report displays. Note that in the ADaMIG, \"parameter\" is a synonym of \"analysis parameter.\" \\n PARAM must be present and populated on every record in a BDS dataset."
    },
    {
      "version": "ADaMIG v1.3",
      "dataStructureName": "Basic Data Structure",
      "variableSet": "Analysis Parameter",
      "variableName": "PARAMCD",
      "variableLabel": "Parameter Code",
      "type": "Char",
      "cdiscCtCodelistCodes": "",
      "cdiscCtCodelistSubmissionValues": "",
      "describedValueDomains": "",
      "valueListValue": "",
      "core": "Req",
      "cdiscNotes": "The short name of the analysis parameter in PARAM. The values of PARAMCD must be no more than 8 characters in length, start with a letter (not underscore), and be comprised only of letters (A-Z), underscore (_), and numerals (0-9). These constraints will allow for a BDS dataset to be transposed in such a way that the values of PARAMCD can be used as valid ADaM variable names per Section 3.1.1, General Variable Conventions. There must be a one-to-one relationship between PARAM and PARAMCD within a dataset. \\n PARAMCD must be present and populated on every record in a BDS dataset."
    },
    {
      "version": "ADaMIG v1.3",
      "dataStructureName": "Basic Data Structure",
      "variableSet": "Analysis Parameter",
      "variableName": "PARAMN",
      "variableLabel": "Parameter (N)",
      "type": "Num",
      "cdiscCtCodelistCodes": "",
      "cdiscCtCodelistSubmissionValues": "",
      "describedValueDomains": "",
      "valueListValue": "",
      "core": "Perm",
      "cdiscNotes": "Numeric representation of PARAM. Useful for ordering and programmatic manipulation. There must be a one-to-one relationship between PARAM and PARAMN within a dataset for all parameters where PARAMN is populated. \\n if PARAMN is populated on any record for a PARAM, it must be populated on every record for that PARAM."
    },
    {
      "version": "ADaMIG v1.3",
      "dataStructureName": "Basic Data Structure",
      "variableSet": "Analysis Parameter",
      "variableName": "PARCATy",
      "variableLabel": "Parameter Category y",
      "type": "Char",
      "cdiscCtCodelistCodes": "",
      "cdiscCtCodelistSubmissionValues": "",
      "describedValueDomains": "",
      "valueListValue": "",
      "core": "Perm",
      "cdiscNotes": "A categorization of PARAM within a dataset. For example, values of PARCAT1 might group the parameters having to do with a particular questionnaire, lab specimen type, or area of investigation. Note that PARCATy is not a qualifier for PARAM. PARAM to PARCATy is a many-to-one mapping; any given PARAM may be associated with at most one level of PARCATy (e.g., one level of PARCAT1 and one level of PARCAT2)."
    },
    {
      "version": "ADaMIG v1.3",
      "dataStructureName": "Basic Data Structure",
      "variableSet": "Analysis Parameter",
      "variableName": "PARCATyN",
      "variableLabel": "Parameter Category y (N)",
      "type": "Num",
      "cdiscCtCodelistCodes": "",
      "cdiscCtCodelistSubmissionValues": "",
      "describedValueDomains": "",
      "valueListValue": "",
      "core": "Perm",
      "cdiscNotes": "Numeric representation of PARCATy. Useful for the ordering of values of PARCATy or for other purposes. There must be a one-to-one relationship between PARCATy and PARCATyN within a dataset. \\n PARCATyN cannot be present unless PARCATy is also present. When PARCATy and PARCATyN are present, then on a given record, either both must be populated or both must be null."
    },
    {
      "version": "ADaMIG v1.3",
      "dataStructureName": "Basic Data Structure",
      "variableSet": "Analysis Parameter",
      "variableName": "AVAL",
      "variableLabel": "Analysis Value",
      "type": "Num",
      "cdiscCtCodelistCodes": "",
      "cdiscCtCodelistSubmissionValues": "",
      "describedValueDomains": "",
      "valueListValue": "",
      "core": "Cond",
      "cdiscNotes": "Numeric analysis value described by PARAM. On a given record, it is permissible for AVAL, AVALC, or both to be null. AVAL is required if AVALC is not present, since either AVAL or AVALC must be present in the dataset."
    },
    {
      "version": "ADaMIG v1.3",
      "dataStructureName": "Basic Data Structure",
      "variableSet": "Analysis Parameter",
      "variableName": "AVALC",
      "variableLabel": "Analysis Value (C)",
      "type": "Char",
      "cdiscCtCodelistCodes": "",
      "cdiscCtCodelistSubmissionValues": "",
      "describedValueDomains": "",
      "valueListValue": "",
      "core": "Cond",
      "cdiscNotes": "Character analysis value described by PARAM. AVALC can be a character string mapping to AVAL, but if so there must be a one-to-one relationship between AVAL and AVALC within a given PARAM. AVALC should not be used to categorize the values of AVAL. Within a given parameter, if there exists a row on which both AVALC and AVAL are populated, then there must be a one-to-one relationship between AVALC and AVAL on all rows on which both variables are populated. (In other words, there is no requirement that records with a null value in either AVAL or AVALC be included when determining whether the one-to-one relationship requirement is satisfied.) On a given record, it is permissible for AVAL, AVALC, or both to be null. \\n AVALC is required if AVAL is not present, since either AVAL or AVALC must be present in the dataset."
    },
    {
      "version": "ADaMIG v1.3",
      "dataStructureName": "Basic Data Structure",
      "variableSet": "Analysis Parameter",
      "variableName": "AVALCATy",
      "variableLabel": "Analysis Value Category y",
      "type": "Char",
      "cdiscCtCodelistCodes": "",
      "cdiscCtCodelistSubmissionValues": "",
      "describedValueDomains": "",
      "valueListValue": "",
      "core": "Perm",
      "cdiscNotes": "A categorization of AVAL or AVALC within a parameter. Not necessarily a one-to-one mapping to AVAL and/or AVALC. For example, if PARAM is \"Headache Severity\" and AVAL has values 0, 1, 2, or 3, AVALCAT1 can categorize AVAL into \"None or Mild\" (for AVAL 0 or 1) and \"Moderate or Severe\" (for AVAL 2 or 3). AVALCATy is parameter variant."
    },
    {
      "version": "ADaMIG v1.3",
      "dataStructureName": "Basic Data Structure",
      "variableSet": "Analysis Parameter",
      "variableName": "AVALCAyN",
      "variableLabel": "Analysis Value Category y (N)",
      "type": "Num",
      "cdiscCtCodelistCodes": "",
      "cdiscCtCodelistSubmissionValues": "",
      "describedValueDomains": "",
      "valueListValue": "",
      "core": "Perm",
      "cdiscNotes": "Numeric representation of AVALCATy. Useful for ordering of values of AVALCATy or for other purposes. There must be a one-to-one relationship between AVALCAyN and AVALCATy within a parameter. \\n AVALCAyN cannot be present unless AVALCATy is also present. When AVALCATy and AVALCAyN are present, then on a given record, either both must be populated or both must be null."
    },
    {
      "version": "ADaMIG v1.3",
      "dataStructureName": "Basic Data Structure",
      "variableSet": "Analysis Parameter",
      "variableName": "BASE",
      "variableLabel": "Baseline Value",
      "type": "Num",
      "cdiscCtCodelistCodes": "",
      "cdiscCtCodelistSubmissionValues": "",
      "describedValueDomains": "",
      "valueListValue": "",
      "core": "Cond",
      "cdiscNotes": "The subject's baseline analysis value for a parameter and baseline definition (i.e., BASETYPE) if present. BASE contains the value of AVAL copied from a record within the parameter on which ABLFL = \"Y\". Required if dataset supports analysis or review of numeric baseline value or functions of numeric baseline value. If BASE is populated for a parameter, and BASE is non-null for a subject for that parameter, then there must be a record flagged by ABLFL for that subject and parameter. Note that a baseline record may be derived (e.g., it may be an average) in which case DTYPE must be populated on the baseline record."
    },
    {
      "version": "ADaMIG v1.3",
      "dataStructureName": "Basic Data Structure",
      "variableSet": "Analysis Parameter",
      "variableName": "BASEC",
      "variableLabel": "Baseline Value (C)",
      "type": "Char",
      "cdiscCtCodelistCodes": "",
      "cdiscCtCodelistSubmissionValues": "",
      "describedValueDomains": "",
      "valueListValue": "",
      "core": "Perm",
      "cdiscNotes": "The subject's baseline value of AVALC for a parameter and baseline definition (i.e., BASETYPE) if present. May be needed when AVALC is of interest. BASEC contains the value of AVALC copied from a record within the parameter on which ABLFL = \"Y\". If both AVAL and AVALC are populated within a parameter, the baseline record for AVALC must be the same record as that for AVAL. \\n Within a given parameter, if there exists a row on which both BASEC and BASE are populated, then there must be a one-to-one relationship between BASEC and BASE on all rows on which both variables are populated. (In other words, there is no requirement that records with a null value in either BASE or BASEC be included when determining whether the one-to-one relationship requirement is satisfied.) On a given record, it is permissible for BASE, BASEC, or both to be null."
    },
    {
      "version": "ADaMIG v1.3",
      "dataStructureName": "Basic Data Structure",
      "variableSet": "Analysis Parameter",
      "variableName": "BASECATy",
      "variableLabel": "Baseline Category y",
      "type": "Char",
      "cdiscCtCodelistCodes": "",
      "cdiscCtCodelistSubmissionValues": "",
      "describedValueDomains": "",
      "valueListValue": "",
      "core": "Perm",
      "cdiscNotes": "A categorization of BASE or BASEC within a parameter. Not necessarily a one-to-one mapping to BASE or BASEC. For example, if PARAM is \"Headache Severity\" and AVAL has values 0, 1, 2, or 3, BASECAT1 can categorize BASE into \"None or Mild\" (for BASE 0 or 1) and \"Moderate or Severe\" (for BASE 2 or 3)."
    },
    {
      "version": "ADaMIG v1.3",
      "dataStructureName": "Basic Data Structure",
      "variableSet": "Analysis Parameter",
      "variableName": "BASECAyN",
      "variableLabel": "Baseline Category y (N)",
      "type": "Num",
      "cdiscCtCodelistCodes": "",
      "cdiscCtCodelistSubmissionValues": "",
      "describedValueDomains": "",
      "valueListValue": "",
      "core": "Perm",
      "cdiscNotes": "Numeric representation of BASECATy. Useful for ordering of values of BASECATy or for other purposes. There must be a one-to-one relationship between BASECAyN and BASECATy within a parameter. \\n BASECAyN cannot be present unless BASECATy is also present. When BASECATy and BASECAyN are present, then on a given record, either both must be populated or both must be null."
    },
    {
      "version": "ADaMIG v1.3",
      "dataStructureName": "Basic Data Structure",
      "variableSet": "Analysis Parameter",
      "variableName": "BASETYPE",
      "variableLabel": "Baseline Type",
      "type": "Char",
      "cdiscCtCodelistCodes": "",
      "cdiscCtCodelistSubmissionValues": "",
      "describedValueDomains": "",
      "valueListValue": "",
      "core": "Cond",
      "cdiscNotes": "Producer-defined text describing the definition of baseline relevant to the value of BASE on the current record. Required when there are multiple ways that baseline is defined. If used for any PARAM within a dataset, it must be non-null for all records for that PARAM within that dataset where either BASE or BASEC are also non-null. Refer to Section 4.2.1.6, Rule 6, for an example."
    },
    {
      "version": "ADaMIG v1.3",
      "dataStructureName": "Basic Data Structure",
      "variableSet": "Analysis Parameter",
      "variableName": "CHG",
      "variableLabel": "Change from Baseline",
      "type": "Num",
      "cdiscCtCodelistCodes": "",
      "cdiscCtCodelistSubmissionValues": "",
      "describedValueDomains": "",
      "valueListValue": "",
      "core": "Perm",
      "cdiscNotes": "Change from baseline analysis value. Equal to AVAL-BASE. If used for a given PARAM, should be populated for all post-baseline records of that PARAM regardless of whether that record is used for analysis. The decision on how to populate pre-baseline and baseline values of CHG is left to producer choice."
    },
    {
      "version": "ADaMIG v1.3",
      "dataStructureName": "Basic Data Structure",
      "variableSet": "Analysis Parameter",
      "variableName": "CHGCATy",
      "variableLabel": "Change from Baseline Category y",
      "type": "Char",
      "cdiscCtCodelistCodes": "",
      "cdiscCtCodelistSubmissionValues": "",
      "describedValueDomains": "",
      "valueListValue": "",
      "core": "Perm",
      "cdiscNotes": "A categorization of CHG within a parameter. Not necessarily a one-to-one mapping to CHG. The definition of CHGCATy may vary by PARAM. For example, CHGCAT1 may be used to categorize CHG with respect to ranges of change in SYSBP; \"-10 to -5 mm Hg\", \"-5 to 0 mm Hg\" categories."
    },
    {
      "version": "ADaMIG v1.3",
      "dataStructureName": "Basic Data Structure",
      "variableSet": "Analysis Parameter",
      "variableName": "CHGCATyN",
      "variableLabel": "Change from Baseline Category y (N)",
      "type": "Num",
      "cdiscCtCodelistCodes": "",
      "cdiscCtCodelistSubmissionValues": "",
      "describedValueDomains": "",
      "valueListValue": "",
      "core": "Perm",
      "cdiscNotes": "Numeric representation of CHGCATy. Useful for ordering of values of CHGCATy or for other purposes. There must be a one-to-one relationship between CHGCATyN and CHGCATy within a parameter. \\n CHGCATyN cannot be present unless CHGCATy is also present. When CHGCATy and CHGCATyN are present, then on a given record, either both must be populated or both must be null."
    },
    {
      "version": "ADaMIG v1.3",
      "dataStructureName": "Basic Data Structure",
      "variableSet": "Analysis Parameter",
      "variableName": "PCHG",
      "variableLabel": "Percent Change from Baseline",
      "type": "Num",
      "cdiscCtCodelistCodes": "",
      "cdiscCtCodelistSubmissionValues": "",
      "describedValueDomains": "",
      "valueListValue": "",
      "core": "Perm",
      "cdiscNotes": "Percent change from baseline analysis value. Equal to ((AVAL-BASE)/BASE)*100. If used for a given PARAM, should be populated (when calculable) for all post-baseline records of that PARAM regardless of whether that record is used for analysis. The decision on how to populate pre-baseline and baseline values of PCHG is left to producer choice."
    },
    {
      "version": "ADaMIG v1.3",
      "dataStructureName": "Basic Data Structure",
      "variableSet": "Analysis Parameter",
      "variableName": "PCHGCATy",
      "variableLabel": "Percent Chg from Baseline Category y",
      "type": "Char",
      "cdiscCtCodelistCodes": "",
      "cdiscCtCodelistSubmissionValues": "",
      "describedValueDomains": "",
      "valueListValue": "",
      "core": "Perm",
      "cdiscNotes": "A categorization of PCHG within a parameter. Not necessarily a one-to-one mapping to PCHG. The definition of PCHGCATy may vary by PARAM. For example, PCHGCAT1 may be used to categorize PCHG with respect to ranges of change in SYSBP; \">5%\", \">10%\" categories."
    },
    {
      "version": "ADaMIG v1.3",
      "dataStructureName": "Basic Data Structure",
      "variableSet": "Analysis Parameter",
      "variableName": "PCHGCAyN",
      "variableLabel": "Percent Chg from Baseline Category y (N)",
      "type": "Num",
      "cdiscCtCodelistCodes": "",
      "cdiscCtCodelistSubmissionValues": "",
      "describedValueDomains": "",
      "valueListValue": "",
      "core": "Perm",
      "cdiscNotes": "Numeric representation of PCHGCATy. Useful for ordering of values of PCHGCATy or for other purposes. There must be a one-to-one relationship between PCHGCAyN and PCHGCATy within a parameter. \\n PCHGCAyN cannot be present unless PCHGCATy is also present. When PCHGCATy and PCHGCAyN are present, then on a given record, either both must be populated or both must be null."
    },
    {
      "version": "ADaMIG v1.3",
      "dataStructureName": "Basic Data Structure",
      "variableSet": "Analysis Parameter",
      "variableName": "R2BASE",
      "variableLabel": "Ratio to Baseline",
      "type": "Num",
      "cdiscCtCodelistCodes": "",
      "cdiscCtCodelistSubmissionValues": "",
      "describedValueDomains": "",
      "valueListValue": "",
      "core": "Perm",
      "cdiscNotes": "Ratio to the baseline value. Equal to AVAL / BASE. If used for a given PARAM, should be populated for all post-baseline records of that PARAM regardless of whether that record is used for analysis. The decision on how to populate pre-baseline and baseline values of R2BASE is left to producer choice."
    },
    {
      "version": "ADaMIG v1.3",
      "dataStructureName": "Basic Data Structure",
      "variableSet": "Analysis Parameter",
      "variableName": "R2AyLO",
      "variableLabel": "Ratio to Analysis Range y Lower Limit",
      "type": "Num",
      "cdiscCtCodelistCodes": "",
      "cdiscCtCodelistSubmissionValues": "",
      "describedValueDomains": "",
      "valueListValue": "",
      "core": "Perm",
      "cdiscNotes": "Ratio to the lower limit of the analysis range y. Equal to AVAL / AyLO. AyLO must exist in the ADaM dataset. If used for a given PARAM, should be populated for all post-baseline records of that PARAM regardless of whether that record is used for analysis. The decision on how to populate pre-baseline and baseline values of R2AyLO is left to producer choice."
    },
    {
      "version": "ADaMIG v1.3",
      "dataStructureName": "Basic Data Structure",
      "variableSet": "Analysis Parameter",
      "variableName": "R2AyHI",
      "variableLabel": "Ratio to Analysis Range y Upper Limit",
      "type": "Num",
      "cdiscCtCodelistCodes": "",
      "cdiscCtCodelistSubmissionValues": "",
      "describedValueDomains": "",
      "valueListValue": "",
      "core": "Perm",
      "cdiscNotes": "Ratio to the upper limit of the analysis range y. Equal to AVAL / AyHI. AyHI must exist in the ADaM dataset. If used for a given PARAM, should be populated for all post-baseline records of that PARAM regardless of whether that record is used for analysis. The decision on how to populate pre-baseline and baseline values of R2AyHI is left to producer choice."
    },
    {
      "version": "ADaMIG v1.3",
      "dataStructureName": "Basic Data Structure",
      "variableSet": "Analysis Parameter",
      "variableName": "SHIFTy",
      "variableLabel": "Shift y",
      "type": "Char",
      "cdiscCtCodelistCodes": "",
      "cdiscCtCodelistSubmissionValues": "",
      "describedValueDomains": "",
      "valueListValue": "",
      "core": "Perm",
      "cdiscNotes": "A shift in values depending on the defined pairing for group y within a parameter. SHIFTy can only be based on the change in value of any of the following pairs (BASECATy, AVALCATy), (BNRIND, ANRIND), (ByIND, AyIND), (BTOXGR, ATOXGR), (BTOXGRL, ATOXGRL), (BTOXGRH, ATOXGRH), (BASE, AVAL) or (BASEC, AVALC). Useful for shift tables. For example, \"NORMAL to HIGH\". If used for a given PARAM, should be populated (when calculable) for all post-baseline records of that PARAM regardless of whether that record is used for analysis. The decision on how to populate baseline and pre-baseline values of SHIFTy is left to producer choice."
    },
    {
      "version": "ADaMIG v1.3",
      "dataStructureName": "Basic Data Structure",
      "variableSet": "Analysis Parameter",
      "variableName": "SHIFTyN",
      "variableLabel": "Shift y (N)",
      "type": "Num",
      "cdiscCtCodelistCodes": "",
      "cdiscCtCodelistSubmissionValues": "",
      "describedValueDomains": "",
      "valueListValue": "",
      "core": "Perm",
      "cdiscNotes": "Numeric representation of SHIFTy. There must be a one-to-one relationship between SHIFTyN and SHIFTy within a parameter.SHIFTyN cannot be present unless SHIFTy is also present. When SHIFTy and SHIFTyN are present, then on a given record, either both must be populated or both must be null.If SHIFTyN is used for a given PARAM, SHIFTy and SHIFTyN should be populated (when calculable) for all post-baseline records of that PARAM regardless of whether that record is used for analysis."
    },
    {
      "version": "ADaMIG v1.3",
      "dataStructureName": "Basic Data Structure",
      "variableSet": "Analysis Parameter",
      "variableName": "BCHG",
      "variableLabel": "Change to Baseline",
      "type": "Num",
      "cdiscCtCodelistCodes": "",
      "cdiscCtCodelistSubmissionValues": "",
      "describedValueDomains": "",
      "valueListValue": "",
      "core": "Perm",
      "cdiscNotes": "Change to baseline analysis value. Equal to BASE-AVAL. If used for a given PARAM, should be populated for all post-baseline records of that PARAM regardless of whether that record is used for analysis. The decision on how to populate pre-baseline and baseline values of BCHG is left to producer choice."
    },
    {
      "version": "ADaMIG v1.3",
      "dataStructureName": "Basic Data Structure",
      "variableSet": "Analysis Parameter",
      "variableName": "BCHGCATy",
      "variableLabel": "Change to Baseline Category y",
      "type": "Char",
      "cdiscCtCodelistCodes": "",
      "cdiscCtCodelistSubmissionValues": "",
      "describedValueDomains": "",
      "valueListValue": "",
      "core": "Perm",
      "cdiscNotes": "A categorization of BCHG within a parameter. Not necessarily a one-to-one mapping to BCHG. The definition of BCHGCATy may vary by PARAM. For example, BCHGCAT1 may be used to categorize BCHG with respect to ranges of change in SYSBP; \"-10 to -5 mm Hg\", \"-5 to 0 mm Hg\" categories."
    },
    {
      "version": "ADaMIG v1.3",
      "dataStructureName": "Basic Data Structure",
      "variableSet": "Analysis Parameter",
      "variableName": "BCHGCAyN",
      "variableLabel": "Change to Baseline Category y (N)",
      "type": "Num",
      "cdiscCtCodelistCodes": "",
      "cdiscCtCodelistSubmissionValues": "",
      "describedValueDomains": "",
      "valueListValue": "",
      "core": "Perm",
      "cdiscNotes": "Numeric representation of BCHGCATy. Useful for ordering of values of BCHGCATy or for other purposes. There must be a one-to-one relationship between BCHGCAyN and BCHGCATy within a parameter. \\n BCHGCAyN cannot be present unless BCHGCATy is also present. When BCHGCATy and BCHGCAyN are present, then on a given record, either both must be populated or both must be null."
    },
    {
      "version": "ADaMIG v1.3",
      "dataStructureName": "Basic Data Structure",
      "variableSet": "Analysis Parameter",
      "variableName": "PBCHG",
      "variableLabel": "Percent Change to Baseline",
      "type": "Num",
      "cdiscCtCodelistCodes": "",
      "cdiscCtCodelistSubmissionValues": "",
      "describedValueDomains": "",
      "valueListValue": "",
      "core": "Perm",
      "cdiscNotes": "Percent change to baseline analysis value. Equal to ((BASE-AVAL)/AVAL)*100. If used for a given PARAM, should be populated (when calculable) for all post-baseline records of that PARAM regardless of whether that record is used for analysis. The decision on how to populate pre-baseline and baseline values of PBCHG is left to producer choice"
    },
    {
      "version": "ADaMIG v1.3",
      "dataStructureName": "Basic Data Structure",
      "variableSet": "Analysis Parameter",
      "variableName": "PBCHGCAy",
      "variableLabel": "Percent Change to Baseline Category y",
      "type": "Char",
      "cdiscCtCodelistCodes": "",
      "cdiscCtCodelistSubmissionValues": "",
      "describedValueDomains": "",
      "valueListValue": "",
      "core": "Perm",
      "cdiscNotes": "A categorization of PBCHG within a parameter. Not necessarily a one-to-one mapping to PBCHG. The definition of PBCHGCAy may vary by PARAM. For example, PBCHGCA1 may be used to categorize PBCHG with respect to ranges of change in SYSBP; \">5%\", \">10%\" categories."
    },
    {
      "version": "ADaMIG v1.3",
      "dataStructureName": "Basic Data Structure",
      "variableSet": "Analysis Parameter",
      "variableName": "PBCHGCyN",
      "variableLabel": "Percent Change to Baseline Category y (N)",
      "type": "Num",
      "cdiscCtCodelistCodes": "",
      "cdiscCtCodelistSubmissionValues": "",
      "describedValueDomains": "",
      "valueListValue": "",
      "core": "Perm",
      "cdiscNotes": "Numeric representation of PBCHGCAy. Useful for ordering of values of PBCHGCAy or for other purposes. There must be a one-to-one relationship between PBCHGCyN and PBCHGCAy within a parameter. \\n PBCHGCyN cannot be present unless PBCHGCAy is also present. When PBCHGCAy and PBCHGCyN are present, then on a given record, either both must be populated or both must be null."
    },
    {
      "version": "ADaMIG v1.3",
      "dataStructureName": "Basic Data Structure",
      "variableSet": "Analysis Parameter Criteria",
      "variableName": "CRITy",
      "variableLabel": "Analysis Criterion y",
      "type": "Char",
      "cdiscCtCodelistCodes": "",
      "cdiscCtCodelistSubmissionValues": "",
      "describedValueDomains": "",
      "valueListValue": "",
      "core": "Perm",
      "cdiscNotes": "A text string identifying a pre-specified criterion within a parameter, for example SYSBP > 90. Required if CRITyFL is present. In some cases, the presence of the text string indicates that the criterion is satisfied on this record and CRITyFL is set to Y, while a null value indicates that the criterion is not satisfied or is not evaluable and is accompanied by a null value in CRITyFL. In other cases, the text string identifies the criterion being evaluated and is populated on every row for the parameter, but whether or not the criterion is satisfied is indicated by the value of the variable CRITyFL. See CRITyFL and CRITyFN. \\n Refer to Section 4.7, Identification of Records which Satisfy a Predefined Criterion for Analysis Purposes, for additional discussion of CRITy, CRITyFL and CRITyFN."
    },
    {
      "version": "ADaMIG v1.3",
      "dataStructureName": "Basic Data Structure",
      "variableSet": "Analysis Parameter Criteria",
      "variableName": "CRITyFL",
      "variableLabel": "Criterion y Evaluation Result Flag",
      "type": "Char",
      "cdiscCtCodelistCodes": "",
      "cdiscCtCodelistSubmissionValues": "",
      "describedValueDomains": "",
      "valueListValue": "Y; N",
      "core": "Cond",
      "cdiscNotes": "Character flag variable indicating whether the criterion defined in CRITy was met by the data on the record. See CRITy for more information regarding how to use CRITy and CRITyFL to indicate whether a criterion is met. Required if CRITy is present. \\n Refer to Section 4.7, Identification of Records which Satisfy a Predefined Criterion for Analysis Purposes, for additional discussion."
    },
    {
      "version": "ADaMIG v1.3",
      "dataStructureName": "Basic Data Structure",
      "variableSet": "Analysis Parameter Criteria",
      "variableName": "CRITyFN",
      "variableLabel": "Criterion y Evaluation Result Flag (N)",
      "type": "Num",
      "cdiscCtCodelistCodes": "",
      "cdiscCtCodelistSubmissionValues": "",
      "describedValueDomains": "",
      "valueListValue": "1; 0",
      "core": "Perm",
      "cdiscNotes": "Numeric representation of CRITyFL. There must be a one-to-one relationship between CRITyFN and CRITyFL within a parameter. \\n CRITyFN cannot be present unless CRITyFL is also present. When CRITyFL and CRITyFN are present, then on a given record, either both must be populated or both must be null."
    },
    {
      "version": "ADaMIG v1.3",
      "dataStructureName": "Basic Data Structure",
      "variableSet": "Analysis Parameter Criteria",
      "variableName": "MCRITy",
      "variableLabel": "Analysis Multi-Response Criterion y",
      "type": "Char",
      "cdiscCtCodelistCodes": "",
      "cdiscCtCodelistSubmissionValues": "",
      "describedValueDomains": "",
      "valueListValue": "",
      "core": "Perm",
      "cdiscNotes": "A text string identifying a pre-specified criterion within a parameter, where the criterion can have multiple responses (as opposed to CRITy which has binary responses). Required if MCRITyML is present. For example, the grade of a lab analyte is compared to the baseline grade, with the possible conditions being 0 to 1, 0 to 2, etc. The text string identifies the criterion being evaluated (for example, \"Grade increase\") and is populated on every row for the parameter; which level of the criterion is satisfied is indicated by the value of the variable MCRITyML (for example \"0 to 1\", \"0 to 2\", etc.). \\n See MCRITyML and MCRITyMN below, and refer to Section 4.7, Identification of Records which Satisfy a Predefined Criterion for Analysis Purposes, for additional discussion of MCRITy, MCRITyML, and MCRITyMN."
    },
    {
      "version": "ADaMIG v1.3",
      "dataStructureName": "Basic Data Structure",
      "variableSet": "Analysis Parameter Criteria",
      "variableName": "MCRITyML",
      "variableLabel": "Multi-Response Criterion y Evaluation",
      "type": "Char",
      "cdiscCtCodelistCodes": "",
      "cdiscCtCodelistSubmissionValues": "",
      "describedValueDomains": "",
      "valueListValue": "",
      "core": "Cond",
      "cdiscNotes": "Character variable indicating which level of the criterion defined in MCRITy was met by the data on the record. See MCRITy for more information regarding how to use MCRITy and MCRITyML to indicate whether a criterion was met. Content is sponsor-defined. Required if MCRITy is present."
    },
    {
      "version": "ADaMIG v1.3",
      "dataStructureName": "Basic Data Structure",
      "variableSet": "Analysis Parameter Criteria",
      "variableName": "MCRITyMN",
      "variableLabel": "Multi-Response Criterion y Eval (N)",
      "type": "Num",
      "cdiscCtCodelistCodes": "",
      "cdiscCtCodelistSubmissionValues": "",
      "describedValueDomains": "",
      "valueListValue": "",
      "core": "Perm",
      "cdiscNotes": "Numeric representation of MCRITyML. There must be a one-to-one relationship between MCRITyMN and MCRITyML within a parameter. Content is sponsor-defined. \\n MCRITyMN cannot be present unless MCRITyML is also present. When MCRITyML and MCRITyMN are present, then on a given record, either both must be populated or both must be null."
    },
    {
      "version": "ADaMIG v1.3",
      "dataStructureName": "Basic Data Structure",
      "variableSet": "Analysis Descriptor",
      "variableName": "DTYPE",
      "variableLabel": "Derivation Type",
      "type": "Char",
      "cdiscCtCodelistCodes": "C81224",
      "cdiscCtCodelistSubmissionValues": "DTYPE",
      "describedValueDomains": "",
      "valueListValue": "",
      "core": "Cond",
      "cdiscNotes": "Analysis value derivation method. DTYPE is used to denote, and must be populated, when the value of AVAL or AVALC has been imputed or derived differently than the other analysis values within the parameter. DTYPE is required to be populated even if AVAL and AVALC are null on the derived record. \\n Three common situations when DTYPE should be populated: \\n * A new row is added within a parameter with the analysis value populated based on other rows within the parameter. \\n * A new row is added within a parameter with the analysis value populated based on a constant value or data from other subjects. \\n * An analysis value (AVAL or AVALC) on an existing record is being replaced with a value based on a pre-specified algorithm. \\n DTYPE is used to denote analysis values that are \"special cases\" within a parameter. For each value of DTYPE, the precise derivation algorithm must be defined in analysis variable metadata, even for DTYPE values in the CDISC Controlled Terminology. The controlled terminology for DTYPE is extensible. See Section 4, Implementation Issues, Standard Solutions, and Examples for examples of the use of DTYPE. \\n Some examples of DTYPE values: \\n * LOCF = last observation carried forward \\n * WOCF = worst observation carried forward \\n * AVERAGE = average of values"
    },
    {
      "version": "ADaMIG v1.3",
      "dataStructureName": "Basic Data Structure",
      "variableSet": "Analysis Visit Windowing",
      "variableName": "AWRANGE",
      "variableLabel": "Analysis Window Valid Relative Range",
      "type": "Char",
      "cdiscCtCodelistCodes": "",
      "cdiscCtCodelistSubmissionValues": "",
      "describedValueDomains": "",
      "valueListValue": "",
      "core": "Perm",
      "cdiscNotes": "The range of values that are valid for a given analysis timepoint (a given value of AVISIT). For example, \"5-9 DAYS\"."
    },
    {
      "version": "ADaMIG v1.3",
      "dataStructureName": "Basic Data Structure",
      "variableSet": "Analysis Visit Windowing",
      "variableName": "AWTARGET",
      "variableLabel": "Analysis Window Target",
      "type": "Num",
      "cdiscCtCodelistCodes": "",
      "cdiscCtCodelistSubmissionValues": "",
      "describedValueDomains": "",
      "valueListValue": "",
      "core": "Perm",
      "cdiscNotes": "The target or most desired analysis relative day (ADY) value or analysis relative time (ARELTM) value for a given value of AVISIT."
    },
    {
      "version": "ADaMIG v1.3",
      "dataStructureName": "Basic Data Structure",
      "variableSet": "Analysis Visit Windowing",
      "variableName": "AWTDIFF",
      "variableLabel": "Analysis Window Diff from Target",
      "type": "Num",
      "cdiscCtCodelistCodes": "",
      "cdiscCtCodelistSubmissionValues": "",
      "describedValueDomains": "",
      "valueListValue": "",
      "core": "Perm",
      "cdiscNotes": "Absolute difference between ADY or ARELTM and AWTARGET. It will be necessary to adjust for the fact that there is no Day 0 in the event that ADY and AWTARGET are not of the same sign. \\n If the sign of the difference is important, then AWTDIFF might have to be used in conjunction with ADY or ARELTM and possibly AWTARGET when choosing among records."
    },
    {
      "version": "ADaMIG v1.3",
      "dataStructureName": "Basic Data Structure",
      "variableSet": "Analysis Visit Windowing",
      "variableName": "AWLO",
      "variableLabel": "Analysis Window Beginning Timepoint",
      "type": "Num",
      "cdiscCtCodelistCodes": "",
      "cdiscCtCodelistSubmissionValues": "",
      "describedValueDomains": "",
      "valueListValue": "",
      "core": "Perm",
      "cdiscNotes": "The value of the beginning timepoint (inclusive) needs to be used in conjunction to AWRANGE. For example, if AWRANGE is \"5-9 DAYS\", then AWLO is \"5\"."
    },
    {
      "version": "ADaMIG v1.3",
      "dataStructureName": "Basic Data Structure",
      "variableSet": "Analysis Visit Windowing",
      "variableName": "AWHI",
      "variableLabel": "Analysis Window Ending Timepoint",
      "type": "Num",
      "cdiscCtCodelistCodes": "",
      "cdiscCtCodelistSubmissionValues": "",
      "describedValueDomains": "",
      "valueListValue": "",
      "core": "Perm",
      "cdiscNotes": "The value of the ending timepoint (inclusive) needs to be used in conjunction to AWRANGE. For example, if AWRANGE is \"5-9 DAYS\", then AWHI is \"9\"."
    },
    {
      "version": "ADaMIG v1.3",
      "dataStructureName": "Basic Data Structure",
      "variableSet": "Analysis Visit Windowing",
      "variableName": "AWU",
      "variableLabel": "Analysis Window Unit",
      "type": "Char",
      "cdiscCtCodelistCodes": "",
      "cdiscCtCodelistSubmissionValues": "",
      "describedValueDomains": "",
      "valueListValue": "",
      "core": "Perm",
      "cdiscNotes": "Unit used for AWTARGET, AWTDIFF, AWLO and AWHI. Examples: DAYS, HOURS."
    },
    {
      "version": "ADaMIG v1.3",
      "dataStructureName": "Basic Data Structure",
      "variableSet": "Time-to-Event",
      "variableName": "STARTDT",
      "variableLabel": "Time-to-Event Origin Date for Subject",
      "type": "Num",
      "cdiscCtCodelistCodes": "",
      "cdiscCtCodelistSubmissionValues": "",
      "describedValueDomains": "",
      "valueListValue": "",
      "core": "Perm",
      "cdiscNotes": "The original date of risk for the time-to-event analysis. This is generally the point at which a subject is first at risk for the event of interest evaluation (as defined in the Protocol or SAP). For example, this may be the randomization date or the date of first study therapy exposure."
    },
    {
      "version": "ADaMIG v1.3",
      "dataStructureName": "Basic Data Structure",
      "variableSet": "Time-to-Event",
      "variableName": "STARTDTM",
      "variableLabel": "Time-to-Event Origin Datetime",
      "type": "Num",
      "cdiscCtCodelistCodes": "",
      "cdiscCtCodelistSubmissionValues": "",
      "describedValueDomains": "",
      "valueListValue": "",
      "core": "Perm",
      "cdiscNotes": "The original datetime of risk for the time-to-event analysis. This is generally the point at which a subject is first at risk for the event of interest evaluation (as defined in the Protocol or SAP). For example, this may be the randomization datetime or the datetime of first study therapy exposure."
    },
    {
      "version": "ADaMIG v1.3",
      "dataStructureName": "Basic Data Structure",
      "variableSet": "Time-to-Event",
      "variableName": "STARTDTF",
      "variableLabel": "Origin Date Imputation Flag",
      "type": "Char",
      "cdiscCtCodelistCodes": "C81223",
      "cdiscCtCodelistSubmissionValues": "DATEFL",
      "describedValueDomains": "",
      "valueListValue": "",
      "core": "Cond",
      "cdiscNotes": "The level of imputation of the start date. See Section 3.1.3, Date and Time Imputation Flag Variables."
    },
    {
      "version": "ADaMIG v1.3",
      "dataStructureName": "Basic Data Structure",
      "variableSet": "Time-to-Event",
      "variableName": "STARTTMF",
      "variableLabel": "Origin Time Imputation Flag",
      "type": "Char",
      "cdiscCtCodelistCodes": "C81226",
      "cdiscCtCodelistSubmissionValues": "TIMEFL",
      "describedValueDomains": "",
      "valueListValue": "",
      "core": "Cond",
      "cdiscNotes": "The level of imputation of the start time. See Section 3.1.3, Date and Time Imputation Flag Variables."
    },
    {
      "version": "ADaMIG v1.3",
      "dataStructureName": "Basic Data Structure",
      "variableSet": "Time-to-Event",
      "variableName": "CNSR",
      "variableLabel": "Censor",
      "type": "Num",
      "cdiscCtCodelistCodes": "",
      "cdiscCtCodelistSubmissionValues": "",
      "describedValueDomains": "",
      "valueListValue": "",
      "core": "Cond",
      "cdiscNotes": "Defines whether the event was censored for the subject within the parameter (period of observation truncated prior to event being observed). It is strongly recommended to use 0 as an event indicator and positive integers as censoring indicators. It is also recommended that unique positive integers be used to indicate coded descriptions of censoring reasons. CNSR is required for time-to-event parameters."
    },
    {
      "version": "ADaMIG v1.3",
      "dataStructureName": "Basic Data Structure",
      "variableSet": "Time-to-Event",
      "variableName": "EVNTDESC",
      "variableLabel": "Event or Censoring Description",
      "type": "Char",
      "cdiscCtCodelistCodes": "",
      "cdiscCtCodelistSubmissionValues": "",
      "describedValueDomains": "",
      "valueListValue": "",
      "core": "Perm",
      "cdiscNotes": "Description of the event of interest or censoring reason for the subject within the parameter."
    },
    {
      "version": "ADaMIG v1.3",
      "dataStructureName": "Basic Data Structure",
      "variableSet": "Time-to-Event",
      "variableName": "CNSDTDSC",
      "variableLabel": "Censor Date Description",
      "type": "Char",
      "cdiscCtCodelistCodes": "",
      "cdiscCtCodelistSubmissionValues": "",
      "describedValueDomains": "",
      "valueListValue": "",
      "core": "Perm",
      "cdiscNotes": "Describes the circumstance represented by the censoring date if different from the event date that warrants censoring."
    },
    {
      "version": "ADaMIG v1.3",
      "dataStructureName": "Basic Data Structure",
      "variableSet": "Toxicity and Range",
      "variableName": "ATOXGR",
      "variableLabel": "Analysis Toxicity Grade",
      "type": "Char",
      "cdiscCtCodelistCodes": "",
      "cdiscCtCodelistSubmissionValues": "",
      "describedValueDomains": "",
      "valueListValue": "",
      "core": "Perm",
      "cdiscNotes": "Toxicity grade of AVAL or AVALC for analysis; may be based on SDTM --TOXGR or an imputed or assigned value."
    },
    {
      "version": "ADaMIG v1.3",
      "dataStructureName": "Basic Data Structure",
      "variableSet": "Toxicity and Range",
      "variableName": "ATOXGRN",
      "variableLabel": "Analysis Toxicity Grade (N)",
      "type": "Num",
      "cdiscCtCodelistCodes": "",
      "cdiscCtCodelistSubmissionValues": "",
      "describedValueDomains": "",
      "valueListValue": "",
      "core": "Perm",
      "cdiscNotes": "Numeric representation of ATOXGR. There must be a one-to-one relationship between ATOXGRN and ATOXGR within a parameter. \\n ATOXGRN cannot be present unless ATOXGR is also present. When ATOXGR and ATOXGRN are present, then on a given record, either both must be populated or both must be null."
    },
    {
      "version": "ADaMIG v1.3",
      "dataStructureName": "Basic Data Structure",
      "variableSet": "Toxicity and Range",
      "variableName": "BTOXGR",
      "variableLabel": "Baseline Toxicity Grade",
      "type": "Char",
      "cdiscCtCodelistCodes": "",
      "cdiscCtCodelistSubmissionValues": "",
      "describedValueDomains": "",
      "valueListValue": "",
      "core": "Perm",
      "cdiscNotes": "ATOXGR of the baseline record identified by ABLFL."
    },
    {
      "version": "ADaMIG v1.3",
      "dataStructureName": "Basic Data Structure",
      "variableSet": "Toxicity and Range",
      "variableName": "BTOXGRN",
      "variableLabel": "Baseline Toxicity Grade (N)",
      "type": "Num",
      "cdiscCtCodelistCodes": "",
      "cdiscCtCodelistSubmissionValues": "",
      "describedValueDomains": "",
      "valueListValue": "",
      "core": "Perm",
      "cdiscNotes": "Numeric representation of BTOXGR. There must be a one-to-one relationship between BTOXGRN and BTOXGR within a parameter. \\n BTOXGRN cannot be present unless BTOXGR is also present. When BTOXGR and BTOXGRN are present, then on a given record, either both must be populated or both must be null."
    },
    {
      "version": "ADaMIG v1.3",
      "dataStructureName": "Basic Data Structure",
      "variableSet": "Toxicity and Range",
      "variableName": "ANRIND",
      "variableLabel": "Analysis Reference Range Indicator",
      "type": "Char",
      "cdiscCtCodelistCodes": "",
      "cdiscCtCodelistSubmissionValues": "",
      "describedValueDomains": "",
      "valueListValue": "",
      "core": "Perm",
      "cdiscNotes": "Indicates where AVAL or AVALC falls with respect to the normal reference range for analysis; may be based on SDTM --NRIND or an imputed or assigned value."
    },
    {
      "version": "ADaMIG v1.3",
      "dataStructureName": "Basic Data Structure",
      "variableSet": "Toxicity and Range",
      "variableName": "BNRIND",
      "variableLabel": "Baseline Reference Range Indicator",
      "type": "Char",
      "cdiscCtCodelistCodes": "",
      "cdiscCtCodelistSubmissionValues": "",
      "describedValueDomains": "",
      "valueListValue": "",
      "core": "Perm",
      "cdiscNotes": "ANRIND of the baseline record identified by ABLFL."
    },
    {
      "version": "ADaMIG v1.3",
      "dataStructureName": "Basic Data Structure",
      "variableSet": "Toxicity and Range",
      "variableName": "ANRLO",
      "variableLabel": "Analysis Normal Range Lower Limit",
      "type": "Num",
      "cdiscCtCodelistCodes": "",
      "cdiscCtCodelistSubmissionValues": "",
      "describedValueDomains": "",
      "valueListValue": "",
      "core": "Perm",
      "cdiscNotes": "Normal range lower limit for analysis; may be based on SDTM --NRLO or an imputed or assigned value."
    },
    {
      "version": "ADaMIG v1.3",
      "dataStructureName": "Basic Data Structure",
      "variableSet": "Toxicity and Range",
      "variableName": "ANRLOC",
      "variableLabel": "Analysis Normal Range Lower Limit (C)",
      "type": "Char",
      "cdiscCtCodelistCodes": "",
      "cdiscCtCodelistSubmissionValues": "",
      "describedValueDomains": "",
      "valueListValue": "",
      "core": "Perm",
      "cdiscNotes": "Character analysis normal range lower limit. \\n ANRLOC can be a character string mapping to ANRLO, but if so there must be a one-to-one relationship between ANRLO and ANRLOC within a given PARAM. ANRLOC should not be used to categorize the values of ANRLO. \\n Within a given parameter, if there exists a row on which both ANRLOC and ANRLO are populated, then there must be a one-to-one relationship between ANRLOC and ANRLO on all rows on which both variables are populated. (In other words, there is no requirement that records with a null value in either ANRLO or ANRLOC be included when determining whether the one-to-one relationship requirement is satisfied.) On a given record, it is permissible for ANRLO, ANRLOC, or both to be null."
    },
    {
      "version": "ADaMIG v1.3",
      "dataStructureName": "Basic Data Structure",
      "variableSet": "Toxicity and Range",
      "variableName": "ANRHI",
      "variableLabel": "Analysis Normal Range Upper Limit",
      "type": "Num",
      "cdiscCtCodelistCodes": "",
      "cdiscCtCodelistSubmissionValues": "",
      "describedValueDomains": "",
      "valueListValue": "",
      "core": "Perm",
      "cdiscNotes": "Normal range upper limit for analysis; may be based on SDTM --NRHI or an imputed or assigned value."
    },
    {
      "version": "ADaMIG v1.3",
      "dataStructureName": "Basic Data Structure",
      "variableSet": "Toxicity and Range",
      "variableName": "ANRHIC",
      "variableLabel": "Analysis Normal Range Upper Limit (C)",
      "type": "Char",
      "cdiscCtCodelistCodes": "",
      "cdiscCtCodelistSubmissionValues": "",
