{
  "model": "DC",
  "version": "0.20c",
  "variant": "mathematical-with-dimensional-relationships",
  "description": "Derivation Concepts with mathematical naming AND explicit relationships to dimensional concepts. Same dimensional relationship structure as Option D, but using mathematical concept names.",
  "designRationale": "In v0.20a and v0.20b, dimensional concepts are listed as available but the relationship between a derivation concept and its dimensions is left to the Transformation. This means every Transformation repeats the same dimensional bindings (Subject, Parameter, Visit) even when they are structurally determined by the concept. In v0.20c, the concept carries these relationships, so the Transformation only declares what the concept does not already know.",
  "dimensionalConcepts": {
    "note": "These are concepts in the model, but they are not derivation concepts. They define the context in which a derivation is performed. The Implementation maps them to physical columns (e.g. USUBJID → Subject, PARAMCD → Parameter, AVISIT → Visit).",
    "Subject": {
      "definition": "The individual for whom the derivation is computed."
    },
    "Parameter": {
      "definition": "The measure or endpoint being derived."
    },
    "Timing": {
      "definition": "The temporal position (absolute or relative)."
    },
    "AnalysisVisit": {
      "definition": "The protocol-defined visit window."
    },
    "Treatment": {
      "definition": "The treatment group or arm."
    },
    "Population": {
      "definition": "The analysis population (ITT, safety, PK)."
    },
    "Period": {
      "definition": "The study period or epoch."
    }
  },
  "dimensionalRoles": {
    "note": "When a concept declares a relationship to a dimensional concept, it specifies the role that dimension plays in the derivation.",
    "partition": "The dimension defines a group. The derivation is computed independently within each partition. The dimension is preserved in the output.",
    "constraint": "The dimension imposes a structural rule. For example, Comparison requires that both inputs share the same Parameter.",
    "order": "The dimension provides the ordering axis. The derivation summarises across this axis — it collapses in the output.",
    "scope": "The dimension defines the boundary within which the derivation operates, without partitioning or ordering."
  },
  "categories": {
    "PointComputation": {
      "definition": "A value computed at a specific point, without reference comparison, temporal aggregation, event aggregation, or classification.",
      "inputPattern": "Method-driven. The concept defines output shape only; the method determines what inputs are needed.",
      "dimensionalRelationships": {
        "Subject": {
          "role": "partition",
          "cardinality": "1",
          "note": "Always per subject."
        },
        "Parameter": {
          "role": "partition",
          "cardinality": "1",
          "note": "Each input and output Measure has a Parameter. Inputs may have different parameters (e.g. WEIGHT, HEIGHT for BMI), and the output may create a new one (BMI)."
        },
        "Timing": {
          "role": "partition",
          "cardinality": "0..1",
          "note": "Preserved in output when present."
        },
        "AnalysisVisit": {
          "role": "partition",
          "cardinality": "0..1"
        },
        "Treatment": {
          "role": "partition",
          "cardinality": "0..1"
        },
        "Population": {
          "role": "scope",
          "cardinality": "0..1"
        },
        "Period": {
          "role": "partition",
          "cardinality": "0..1"
        }
      },
      "concepts": {
        "DirectValue": {
          "definition": "A derived value produced by applying a method to one or more source observations or derived measures.",
          "math": "f(x₁, …, xₙ)",
          "examples": [
            "BMI",
            "eGFR",
            "QTcF",
            "unit-converted lab",
            "LOCF imputed value",
            "questionnaire total score"
          ],
          "result": {
            "valueType": [
              "NumericValue",
              "CharacterValue",
              "CodedResponse"
            ],
            "unit": "inherited or specified"
          }
        }
      }
    },
    "Comparison": {
      "definition": "Data expressing the relationship between two values of the same parameter.",
      "inputPattern": "Concept-driven. Requires 2× DirectValue inputs, intrinsic to the category.",
      "dimensionalRelationships": {
        "Subject": {
          "role": "partition",
          "cardinality": "1",
          "note": "Always per subject."
        },
        "Parameter": {
          "role": "constraint",
          "cardinality": "1",
          "note": "Both inputs must share the same parameter. The output inherits it."
        },
        "Timing": {
          "role": "partition",
          "cardinality": "0..1",
          "note": "The two inputs exist at different time points; the output sits at the source timepoint."
        },
        "AnalysisVisit": {
          "role": "partition",
          "cardinality": "0..1"
        },
        "Treatment": {
          "role": "partition",
          "cardinality": "0..1"
        },
        "Population": {
          "role": "scope",
          "cardinality": "0..1"
        },
        "Period": {
          "role": "partition",
          "cardinality": "0..1"
        }
      },
      "concepts": {
        "AbsoluteDifference": {
          "definition": "Arithmetic difference between two values of the same parameter.",
          "math": "x − x_ref",
          "examples": [
            "change from baseline in SBP",
            "inter-visit difference in weight",
            "difference between duplicate measurements"
          ],
          "result": {
            "valueType": "NumericValue",
            "unit": "inherited"
          }
        },
        "RelativeDifference": {
          "definition": "Proportional difference between two values of the same parameter, relative to the reference.",
          "math": "(x − x_ref) / x_ref",
          "examples": [
            "percent change from baseline in tumor size",
            "relative change in eGFR"
          ],
          "result": {
            "valueType": "NumericValue",
            "unit": "fixed: %"
          }
        },
        "Ratio": {
          "definition": "Quotient of two values of the same parameter.",
          "math": "x / x_ref",
          "examples": [
            "fold change in biomarker",
            "post/pre treatment ratio"
          ],
          "result": {
            "valueType": "NumericValue",
            "unit": "dimensionless"
          }
        },
        "LogRatio": {
          "definition": "Logarithm of the quotient of two values. Symmetric, additive scale.",
          "math": "ln(x / x_ref)",
          "examples": [
            "log-fold change in gene expression",
            "log-ratio of drug concentrations"
          ],
          "result": {
            "valueType": "NumericValue",
            "unit": "dimensionless"
          }
        },
        "CategoricalTransition": {
          "definition": "Categorical movement between two values of the same parameter.",
          "math": "class(x) vs class(x_ref)",
          "examples": [
            "normal-to-abnormal shift in lab",
            "severity worsening from baseline"
          ],
          "result": {
            "valueType": "CodedResponse",
            "unit": "none"
          }
        }
      }
    },
    "SequenceAggregate": {
      "definition": "A summary of an ordered series of the same parameter over time.",
      "inputPattern": "Concept-driven. Requires 1× DirectValue input; the ordered series emerges from dimensional scoping.",
      "dimensionalRelationships": {
        "Subject": {
          "role": "partition",
          "cardinality": "1",
          "note": "Always per subject."
        },
        "Parameter": {
          "role": "partition",
          "cardinality": "1",
          "note": "The series is of a single parameter. Inherited by the output."
        },
        "Timing": {
          "role": "order",
          "cardinality": "1",
          "note": "Provides the ordering axis. COLLAPSES in output — the summary is across all timepoints."
        },
        "AnalysisVisit": {
          "role": "order",
          "cardinality": "0..1",
          "note": "Alternative ordering axis to Timing."
        },
        "Treatment": {
          "role": "partition",
          "cardinality": "0..1"
        },
        "Population": {
          "role": "scope",
          "cardinality": "0..1"
        },
        "Period": {
          "role": "scope",
          "cardinality": "0..1",
          "note": "May define the window over which the series is summarised."
        }
      },
      "concepts": {
        "SequenceMaximum": {
          "definition": "Maximum value in an ordered sequence.",
          "math": "sup{yᵢ}",
          "examples": [
            "Cmax",
            "maximum heart rate during exercise",
            "highest recorded SBP"
          ],
          "result": {
            "valueType": "NumericValue",
            "unit": "inherited"
          }
        },
        "SequenceMinimum": {
          "definition": "Minimum value in an ordered sequence.",
          "math": "inf{yᵢ}",
          "examples": [
            "Ctrough",
            "nadir neutrophil count",
            "minimum platelet count"
          ],
          "result": {
            "valueType": "NumericValue",
            "unit": "inherited"
          }
        },
        "SequenceArgMaximum": {
          "definition": "Time at which maximum value occurs.",
          "math": "argmax_t{yᵢ}",
          "examples": [
            "Tmax"
          ],
          "result": {
            "valueType": "NumericValue",
            "unit": "time unit"
          }
        },
        "SequenceArgMinimum": {
          "definition": "Time at which minimum value occurs.",
          "math": "argmin_t{yᵢ}",
          "examples": [
            "time to nadir"
          ],
          "result": {
            "valueType": "NumericValue",
            "unit": "time unit"
          }
        },
        "SequenceIntegral": {
          "definition": "Integrated value over time (area under curve).",
          "math": "∫y dt",
          "examples": [
            "AUC₀₋₂₄",
            "AUC₀₋∞",
            "glucose AUC during OGTT"
          ],
          "result": {
            "valueType": "NumericValue",
            "unit": "source_unit × time_unit"
          }
        },
        "SequenceCumulativeSum": {
          "definition": "Running total over time.",
          "math": "Σyᵢ for i ≤ k",
          "examples": [
            "cumulative dose",
            "cumulative exposure"
          ],
          "result": {
            "valueType": "NumericValue",
            "unit": "inherited"
          }
        },
        "SequenceRateOfChange": {
          "definition": "Rate of change over a segment (slope).",
          "math": "Δy/Δt",
          "examples": [
            "eGFR slope",
            "tumor growth rate",
            "rate of decline in FEV1"
          ],
          "result": {
            "valueType": "NumericValue",
            "unit": "source_unit / time_unit"
          }
        },
        "ExponentialDecayConstant": {
          "definition": "Time for value to decline by 50%.",
          "math": "ln(2) / λ",
          "examples": [
            "drug half-life",
            "antibody half-life"
          ],
          "result": {
            "valueType": "NumericValue",
            "unit": "time unit"
          }
        },
        "SequenceTerminalValue": {
          "definition": "Last observed value in the sequence.",
          "math": "yₙ",
          "examples": [
            "last observed concentration",
            "end-of-study value"
          ],
          "result": {
            "valueType": "NumericValue",
            "unit": "inherited"
          }
        },
        "SequenceInitialValue": {
          "definition": "First value in the sequence.",
          "math": "y₁",
          "examples": [
            "first post-dose concentration",
            "initial measurement"
          ],
          "result": {
            "valueType": "NumericValue",
            "unit": "inherited"
          }
        },
        "SequenceThresholdDuration": {
          "definition": "Total time spent above or below a threshold.",
          "math": "measure({t : y(t) > θ})",
          "examples": [
            "time in therapeutic range",
            "time above MIC",
            "time in hypoglycemia"
          ],
          "result": {
            "valueType": "NumericValue",
            "unit": "time unit"
          }
        },
        "SequenceThresholdCrossing": {
          "definition": "Time at which sequence first crosses a threshold.",
          "math": "inf{t : y(t) = θ}",
          "examples": [
            "time to target concentration",
            "time to normalization"
          ],
          "result": {
            "valueType": "NumericValue",
            "unit": "time unit"
          }
        },
        "SequenceRange": {
          "definition": "Difference between maximum and minimum in sequence.",
          "math": "sup{yᵢ} − inf{yᵢ}",
          "examples": [
            "blood pressure variability",
            "PK concentration range"
          ],
          "result": {
            "valueType": "NumericValue",
            "unit": "inherited"
          }
        }
      }
    },
    "EventAggregate": {
      "definition": "A summary of discrete event occurrences on a timeline.",
      "inputPattern": "Concept-driven. Requires 1× Observation (OC layer); the event set emerges from dimensional scoping.",
      "dimensionalRelationships": {
        "Subject": {
          "role": "partition",
          "cardinality": "1",
          "note": "Always per subject."
        },
        "Parameter": {
          "role": "partition",
          "cardinality": "0..1",
          "note": "The event type (e.g. specific AE term). Output typically gets a new parameter."
        },
        "Timing": {
          "role": "scope",
          "cardinality": "1",
          "note": "Provides the timeline over which events are counted. Not an ordering axis — events are discrete occurrences."
        },
        "Treatment": {
          "role": "partition",
          "cardinality": "0..1"
        },
        "Population": {
          "role": "scope",
          "cardinality": "0..1"
        },
        "Period": {
          "role": "scope",
          "cardinality": "0..1",
          "note": "May define the window in which events are counted."
        }
      },
      "concepts": {
        "Count": {
          "definition": "Number of occurrences of an event or condition.",
          "math": "|{events}|",
          "examples": [
            "number of AEs",
            "seizure count",
            "number of exacerbations"
          ],
          "result": {
            "valueType": "NumericValue",
            "unit": "none"
          }
        },
        "Rate": {
          "definition": "Number of occurrences per unit of time or exposure.",
          "math": "|{events}| / T",
          "examples": [
            "annualized relapse rate",
            "AE rate per patient-year"
          ],
          "result": {
            "valueType": "NumericValue",
            "unit": "events / time_unit"
          }
        },
        "TimeToEvent": {
          "definition": "Duration from a defined start to event occurrence or censoring.",
          "math": "inf{tᵢ}",
          "examples": [
            "time to first AE",
            "overall survival",
            "progression-free survival"
          ],
          "result": {
            "valueType": "NumericValue",
            "unit": "time unit"
          }
        },
        "InterEventInterval": {
          "definition": "Duration between consecutive recurrent events.",
          "math": "t_{i+1} − tᵢ",
          "examples": [
            "time between seizures",
            "inter-exacerbation interval"
          ],
          "result": {
            "valueType": "NumericValue",
            "unit": "time unit"
          }
        }
      }
    },
    "Classification": {
      "definition": "A derivation mapping value(s) to a categorical assignment.",
      "inputPattern": "Concept-driven. Requires 1× any concept as input (the value being classified).",
      "dimensionalRelationships": {
        "Subject": {
          "role": "partition",
          "cardinality": "1",
          "note": "Always per subject."
        },
        "Parameter": {
          "role": "partition",
          "cardinality": "0..1",
          "note": "The classification may be parameter-specific (e.g. responder flag per parameter) or create a new parameter (e.g. population flag)."
        },
        "Timing": {
          "role": "partition",
          "cardinality": "0..1",
          "note": "Preserved when classifying at each timepoint."
        },
        "AnalysisVisit": {
          "role": "partition",
          "cardinality": "0..1"
        },
        "Treatment": {
          "role": "partition",
          "cardinality": "0..1"
        },
        "Population": {
          "role": "scope",
          "cardinality": "0..1"
        },
        "Period": {
          "role": "partition",
          "cardinality": "0..1"
        }
      },
      "concepts": {
        "Indicator": {
          "definition": "Binary indicator evaluating a criterion (Y/N).",
          "math": "I(criterion)",
          "examples": [
            "baseline flag (ABLFL)",
            "population flag (SAFFL)",
            "responder flag"
          ],
          "result": {
            "valueType": "CodedResponse",
            "unit": "none"
          }
        },
        "Classification": {
          "definition": "Derived categorical grouping from rules.",
          "math": "f(x) → {c₁, c₂, …}",
          "examples": [
            "severity grade",
            "BMI category",
            "renal impairment stage"
          ],
          "result": {
            "valueType": "CodedResponse",
            "unit": "none"
          }
        },
        "Rank": {
          "definition": "Ordinal position of value within a defined scope.",
          "math": "rank(x) within group",
          "examples": [
            "worst post-baseline rank",
            "severity ranking"
          ],
          "result": {
            "valueType": "NumericValue",
            "unit": "none"
          }
        },
        "Quantile": {
          "definition": "Distributional bin assignment (tertiles, quartiles, quintiles).",
          "math": "Qₖ where F(x) in bin k",
          "examples": [
            "exposure quartile",
            "baseline severity tertile"
          ],
          "result": {
            "valueType": "CodedResponse",
            "unit": "none"
          }
        }
      }
    }
  },
  "transformationExample_v020c": {
    "note": "Same structure as Option D but with mathematical concept names.",
    "T.ChangeFromBaseline": {
      "instanceOf": "AbsoluteDifference",
      "usesMethod": "M.Subtraction",
      "inheritedFromConcept": {
        "Subject": "partition (cardinality 1)",
        "Parameter": "constraint — same across both inputs (cardinality 1)"
      },
      "addedByTransformation": {
        "AnalysisVisit": "partition — one result per visit"
      },
      "note": "The Transformation only adds AnalysisVisit. Subject and Parameter (with the same-parameter constraint) are inherited from the Comparison category."
    },
    "T.PeakConcentration": {
      "instanceOf": "SequenceMaximum",
      "usesMethod": "M.Maximum",
      "inheritedFromConcept": {
        "Subject": "partition (cardinality 1)",
        "Parameter": "partition (cardinality 1)",
        "Timing": "order — collapses in output"
      },
      "addedByTransformation": {},
      "note": "The Transformation adds nothing. All dimensional relationships are inherited from the SequenceAggregate category."
    },
    "T.BMICalculation": {
      "instanceOf": "DirectValue",
      "usesMethod": "M.Formula",
      "inheritedFromConcept": {
        "Subject": "partition (cardinality 1)",
        "Parameter": "partition — each input carries its own Parameter (WEIGHT, HEIGHT)"
      },
      "addedByTransformation": {
        "AnalysisVisit": "partition — one BMI per visit"
      },
      "note": "Parameter is inherited and present on both inputs, but each input has a different parameter value. The output creates a new parameter (BMI)."
    }
  }
}