{
  "$schema": "https://json-schema.org/draft/2020-12/schema",
  "version": "3.0",
  "title": "AC/DC Concept Model",
  "description": "Analysis Concept / Data Concept framework for clinical trials data",
  "metadata": {
    "created": "2025-02-06",
    "sources": [
      "ADaMIG_v1.3.csv",
      "ADaM_OCCDS_v1.1.csv",
      "ADaM_BDS_for_TTE_v1.0.csv",
      "SDTM_v2.1.xlsx",
      "CAMIS_Comprehensive_Extraction.xlsx"
    ]
  },
  "layers": {
    "META": { "color": "#ffd54f", "description": "Unifying supertype" },
    "CROSS": { "color": "#78909c", "description": "Cross-cutting context entities" },
    "CONCEPT": { "color": "#a5d6a7", "description": "Shared Semantic Concepts (bridge CO↔DC)" },
    "CO": { "color": "#4fc3f7", "description": "Collected Observations (SDTM)" },
    "CO_LEAF": { "color": "#80deea", "description": "Collection-specific leaf concepts" },
    "DC": { "color": "#ff8a65", "description": "Derivation Concepts (ADaM)" },
    "DC_LEAF": { "color": "#ffab91", "description": "Derivation-specific leaf concepts" },
    "AC": { "color": "#ce93d8", "description": "Analysis Concepts (Inference)" },
    "OUTPUT": { "color": "#81c784", "description": "Analysis Output Concepts" }
  },
  "nodes": [
    {
      "id": "DATUM",
      "name": "Datum",
      "layer": "META",
      "nodeType": "Supertype",
      "desc": "The unifying supertype for all data in the AC/DC pipeline. A Datum is any structured piece of information that carries provenance, context, and meaning within a clinical study.",
      "source": "Conceptual",
      "props": []
    },
    {
      "id": "STUDY",
      "name": "Study",
      "layer": "CROSS",
      "nodeType": "Context",
      "desc": "Clinical study/trial providing protocol context.",
      "source": "SDTM:TS,DM",
      "props": [
        { "n": "studyId", "v": "STUDYID", "t": "Char", "d": "Unique study ID" }
      ]
    },
    {
      "id": "SUBJECT",
      "name": "Subject",
      "layer": "CROSS",
      "nodeType": "Context",
      "desc": "Individual enrolled in a study.",
      "source": "SDTM:DM, ADaM:ADSL",
      "props": [
        { "n": "subjectId", "v": "USUBJID", "t": "Char", "d": "Unique subject ID" },
        { "n": "siteId", "v": "SITEID", "t": "Char", "d": "Study site" },
        { "n": "age", "v": "AGE", "t": "Num", "d": "Age at study start" },
        { "n": "sex", "v": "SEX", "t": "Char", "d": "Sex" },
        { "n": "race", "v": "RACE", "t": "Char", "d": "Race" },
        { "n": "country", "v": "COUNTRY", "t": "Char", "d": "Country" },
        { "n": "plannedArm", "v": "ARMCD/ARM", "t": "Char", "d": "Planned arm" },
        { "n": "actualArm", "v": "ACTARMCD/ACTARM", "t": "Char", "d": "Actual arm" },
        { "n": "setCode", "v": "SETCD", "t": "Char", "d": "Trial set (v2.1)" }
      ]
    },
    {
      "id": "TRIALDESIGN",
      "name": "TrialDesign",
      "layer": "CROSS",
      "nodeType": "Context",
      "desc": "Protocol design elements: arms, elements, visits, sets, I/E criteria.",
      "source": "SDTM: Trial Design + Special Purpose",
      "props": [
        { "n": "armCode", "v": "ARMCD", "t": "Char", "d": "Trial arm (TA)" },
        { "n": "elementCode", "v": "ETCD", "t": "Char", "d": "Element (TE)" },
        { "n": "visitNumber", "v": "VISITNUM", "t": "Num", "d": "Visit (TV)" },
        { "n": "setCode", "v": "SETCD", "t": "Char", "d": "Set (TX, v2.1)" },
        { "n": "ieCode", "v": "IETESTCD", "t": "Char", "d": "I/E criterion (TI)" },
        { "n": "summaryParam", "v": "TSPARMCD", "t": "Char", "d": "Summary param (TS)" },
        { "n": "milestoneType", "v": "MIDSTYPE", "t": "Char", "d": "Milestone (TM)" }
      ]
    },
    {
      "id": "DEVICE",
      "name": "Device",
      "layer": "CROSS",
      "nodeType": "Context",
      "desc": "Medical device under study.",
      "source": "SDTM:DI,DR",
      "props": [
        { "n": "deviceId", "v": "SPDEVID", "t": "Char", "d": "Device ID" }
      ]
    },
    {
      "id": "ORGANISM",
      "name": "NonHostOrganism",
      "layer": "CROSS",
      "nodeType": "Context",
      "desc": "Non-host organism (vector, pathogen).",
      "source": "SDTM:OI",
      "props": [
        { "n": "organismId", "v": "NHOID", "t": "Char", "d": "Organism ID" }
      ]
    },
    {
      "id": "POOL",
      "name": "SubjectPool",
      "layer": "CROSS",
      "nodeType": "Context",
      "desc": "Pool of subjects for non-assignable results.",
      "source": "SDTM:POOLDEF",
      "props": [
        { "n": "poolId", "v": "POOLID", "t": "Char", "d": "Pool ID" }
      ]
    },
    {
      "id": "OBSERVATION",
      "name": "Observation",
      "layer": "CO",
      "nodeType": "Class",
      "desc": "A single collected fact about a Subject within a study domain. The atomic unit of SDTM.",
      "source": "SDTM v2.1: General Observations",
      "props": [
        { "n": "domainCode", "v": "DOMAIN", "t": "Char", "d": "2-char domain" },
        { "n": "sequenceNumber", "v": "--SEQ", "t": "Num", "d": "Sequence within domain/subject" },
        { "n": "groupId", "v": "--GRPID", "t": "Char", "d": "Related record group" },
        { "n": "referenceId", "v": "--REFID", "t": "Char", "d": "Reference ID" },
        { "n": "recordId", "v": "--RECID", "t": "Char", "d": "Invariant record ID" },
        { "n": "sponsorId", "v": "--SPID", "t": "Char", "d": "Sponsor-defined ID" },
        { "n": "linkId", "v": "--LNKID", "t": "Char", "d": "Cross-domain link (1:1/1:N)" },
        { "n": "linkGroup", "v": "--LNKGRP", "t": "Char", "d": "Cross-domain group link (N:1)" },
        { "n": "category", "v": "--CAT", "t": "Char", "d": "Category" },
        { "n": "subcategory", "v": "--SCAT", "t": "Char", "d": "Subcategory" }
      ]
    },
    {
      "id": "EVENT",
      "name": "EventObservation",
      "layer": "CO",
      "nodeType": "Class",
      "desc": "Observation about a clinical event (AE, MH, CE, HO, DS). Topic: --TERM.",
      "source": "SDTM: Events class",
      "props": []
    },
    {
      "id": "INTERVENTION",
      "name": "InterventionObservation",
      "layer": "CO",
      "nodeType": "Class",
      "desc": "Observation about a treatment/medication/procedure (CM, EX, SU, EC, PR, AG). Topic: --TRT.",
      "source": "SDTM: Interventions class",
      "props": []
    },
    {
      "id": "FINDING",
      "name": "FindingObservation",
      "layer": "CO",
      "nodeType": "Class",
      "desc": "Observation from a measurement/test/exam (LB, VS, EG, PE, QS). Topic: --TESTCD/--TEST.",
      "source": "SDTM: Findings class",
      "props": []
    },
    {
      "id": "FINDINGABOUT",
      "name": "FindingAboutObservation",
      "layer": "CO",
      "nodeType": "Class",
      "desc": "A Finding about an Event or Intervention via --OBJ (FA, SR domains).",
      "source": "SDTM: Findings About",
      "props": [
        { "n": "object", "v": "--OBJ", "t": "Char", "d": "Object of observation" }
      ]
    },
    {
      "id": "TOPIC",
      "name": "Topic",
      "layer": "CO",
      "nodeType": "Attribute",
      "desc": "Core subject matter: --TERM (Events), --TRT (Interventions), --TESTCD/--TEST (Findings).",
      "source": "SDTM: Topic role",
      "props": [
        { "n": "reportedTerm", "v": "--TERM", "t": "Char", "d": "Verbatim term (Events)" },
        { "n": "treatmentName", "v": "--TRT", "t": "Char", "d": "Treatment (Interventions)" },
        { "n": "testCode", "v": "--TESTCD", "t": "Char", "d": "Test code (Findings)" },
        { "n": "testName", "v": "--TEST", "t": "Char", "d": "Test name (Findings)" },
        { "n": "modifiedTerm", "v": "--MODIFY", "t": "Char", "d": "Modified for coding" },
        { "n": "standardTerm", "v": "--DECOD", "t": "Char", "d": "Dictionary-derived term" },
        { "n": "testDetail", "v": "--TSTDTL", "t": "Char", "d": "Test detail" },
        { "n": "testPanel", "v": "--TSTPNL", "t": "Char", "d": "Test panel" },
        { "n": "mood", "v": "--MOOD", "t": "Char", "d": "Performed/intended" }
      ]
    },
    {
      "id": "DICTCODING",
      "name": "DictionaryCoding",
      "layer": "CO",
      "nodeType": "Classification",
      "desc": "Hierarchical dictionary mapping: MedDRA (LLT->PT->HLT->HLGT->SOC), WHODrug.",
      "source": "SDTM: Dictionary variables",
      "props": [
        { "n": "preferredTerm", "v": "--DECOD", "t": "Char", "d": "Preferred term" },
        { "n": "llt", "v": "--LLT/--LLTCD", "t": "Char", "d": "Lowest level term + code" },
        { "n": "ptCode", "v": "--PTCD", "t": "Num", "d": "Preferred term code" },
        { "n": "hlt", "v": "--HLT/--HLTCD", "t": "Char", "d": "High level term + code" },
        { "n": "hlgt", "v": "--HLGT/--HLGTCD", "t": "Char", "d": "High level group + code" },
        { "n": "soc", "v": "--SOC/--SOCCD", "t": "Char", "d": "System organ class + code" },
        { "n": "bodySystem", "v": "--BODSYS/--BDSYCD", "t": "Char", "d": "Body system + code" },
        { "n": "drugClass", "v": "--CLAS/--CLASCD", "t": "Char", "d": "Medication class + code" },
        { "n": "atcLevel", "v": "ATCy/ATCyCD", "t": "Char", "d": "ATC level text + code" }
      ]
    },
    {
      "id": "RESULT",
      "name": "Result",
      "layer": "CO",
      "nodeType": "Attribute",
      "desc": "Finding value: original and standard results with ranges and flags.",
      "source": "SDTM: Result/Variable Qualifiers",
      "props": [
        { "n": "originalResult", "v": "--ORRES", "t": "Char", "d": "Original result" },
        { "n": "originalUnit", "v": "--ORRESU", "t": "Char", "d": "Original units" },
        { "n": "stdResultChar", "v": "--STRESC", "t": "Char", "d": "Standard char result" },
        { "n": "stdResultNum", "v": "--STRESN", "t": "Num", "d": "Numeric standard result" },
        { "n": "stdUnit", "v": "--STRESU", "t": "Char", "d": "Standard units" },
        { "n": "normalRangeInd", "v": "--NRIND", "t": "Char", "d": "HIGH/LOW/NORMAL" },
        { "n": "normalLow", "v": "--ORNRLO/--STNRLO", "t": "Mixed", "d": "Normal range low" },
        { "n": "normalHigh", "v": "--ORNRHI/--STNRHI", "t": "Mixed", "d": "Normal range high" },
        { "n": "derivedFlag", "v": "--DRVFL", "t": "Char", "d": "Y if derived in SDTM" },
        { "n": "baselineFlag", "v": "--BLFL", "t": "Char", "d": "Y if baseline" }
      ]
    },
    {
      "id": "SEVERITY",
      "name": "SeverityAssessment",
      "layer": "CO",
      "nodeType": "Attribute",
      "desc": "Severity, causality, outcome, action taken, toxicity grade for Events.",
      "source": "SDTM: Events qualifiers",
      "props": [
        { "n": "severity", "v": "--SEV", "t": "Char", "d": "Severity/intensity" },
        { "n": "seriousness", "v": "--SER", "t": "Char", "d": "Serious (Y/N)" },
        { "n": "causality", "v": "--REL", "t": "Char", "d": "Causality" },
        { "n": "actionTaken", "v": "--ACN", "t": "Char", "d": "Action with treatment" },
        { "n": "outcome", "v": "--OUT", "t": "Char", "d": "Outcome" },
        { "n": "toxGrade", "v": "--TOXGR", "t": "Char", "d": "Toxicity grade" }
      ]
    },
    {
      "id": "SERIOUSNESS",
      "name": "SeriousnessCriteria",
      "layer": "CO",
      "nodeType": "Attribute",
      "desc": "SAE criteria flags for serious adverse events.",
      "source": "SDTM: SAE criteria",
      "props": [
        { "n": "death", "v": "--SDTH", "t": "Char", "d": "Results in death" },
        { "n": "hospitalization", "v": "--SHOSP", "t": "Char", "d": "Hospitalization" },
        { "n": "disability", "v": "--SDISAB", "t": "Char", "d": "Disability" },
        { "n": "lifeThreatening", "v": "--SLIFE", "t": "Char", "d": "Life threatening" },
        { "n": "congenitalAnomaly", "v": "--SCONG", "t": "Char", "d": "Congenital anomaly" },
        { "n": "otherMedicallyImportant", "v": "--SMIE", "t": "Char", "d": "Other medically important" }
      ]
    },
    {
      "id": "DOSE",
      "name": "DoseInformation",
      "layer": "CO",
      "nodeType": "Attribute",
      "desc": "Dosing for Interventions: amount, unit, form, frequency, route.",
      "source": "SDTM: Interventions qualifiers",
      "props": [
        { "n": "dose", "v": "--DOSE", "t": "Num", "d": "Dose amount" },
        { "n": "doseText", "v": "--DOSTXT", "t": "Char", "d": "Dose description" },
        { "n": "doseUnit", "v": "--DOSU", "t": "Char", "d": "Units" },
        { "n": "doseForm", "v": "--DOSFRM", "t": "Char", "d": "Form" },
        { "n": "frequency", "v": "--DOSFRQ", "t": "Char", "d": "Frequency" },
        { "n": "totalDose", "v": "--DOSTOT", "t": "Num", "d": "Total daily dose" },
        { "n": "route", "v": "--ROUTE", "t": "Char", "d": "Route" },
        { "n": "indication", "v": "--INDC", "t": "Char", "d": "Indication" }
      ]
    },
    {
      "id": "TIMING_CO",
      "name": "ObservationTiming",
      "layer": "CO",
      "nodeType": "Timing",
      "desc": "Full temporal context: dates, study days, visits, epochs, time points.",
      "source": "SDTM: Timing role",
      "props": [
        { "n": "collectionDT", "v": "--DTC", "t": "Datetime", "d": "Collection date/time" },
        { "n": "startDT", "v": "--STDTC", "t": "Datetime", "d": "Start date/time" },
        { "n": "endDT", "v": "--ENDTC", "t": "Datetime", "d": "End date/time" },
        { "n": "studyDay", "v": "--DY/--STDY/--ENDY", "t": "Num", "d": "Study days" },
        { "n": "visit", "v": "VISIT/VISITNUM", "t": "Mixed", "d": "Visit name/number" },
        { "n": "epoch", "v": "EPOCH", "t": "Char", "d": "Epoch" },
        { "n": "timepoint", "v": "--TPT/--TPTNUM", "t": "Mixed", "d": "Time point" },
        { "n": "duration", "v": "--DUR", "t": "Char", "d": "Duration (ISO 8601)" }
      ]
    },
    {
      "id": "ANATOMY",
      "name": "AnatomicalContext",
      "layer": "CO",
      "nodeType": "Attribute",
      "desc": "Location, laterality, directionality, portion/totality.",
      "source": "SDTM: Anatomical qualifiers",
      "props": [
        { "n": "location", "v": "--LOC", "t": "Char", "d": "Location" },
        { "n": "laterality", "v": "--LAT", "t": "Char", "d": "Laterality" },
        { "n": "directionality", "v": "--DIR", "t": "Char", "d": "Directionality" },
        { "n": "portionTotality", "v": "--PORTOT", "t": "Char", "d": "Portion/totality" }
      ]
    },
    {
      "id": "SPECIMEN",
      "name": "Specimen",
      "layer": "CO",
      "nodeType": "Attribute",
      "desc": "Specimen material, condition, usability.",
      "source": "SDTM: Specimen variables",
      "props": [
        { "n": "material", "v": "--SPEC", "t": "Char", "d": "Material type" },
        { "n": "condition", "v": "--SPCCND", "t": "Char", "d": "Condition" },
        { "n": "usability", "v": "--SPCUFL", "t": "Char", "d": "Usability" }
      ]
    },
    {
      "id": "METHOD_CO",
      "name": "CollectionMethod",
      "layer": "CO",
      "nodeType": "Attribute",
      "desc": "Method/instrument for data collection.",
      "source": "SDTM: Method variables",
      "props": [
        { "n": "method", "v": "--METHOD", "t": "Char", "d": "Test/exam method" },
        { "n": "labVendor", "v": "--NAM", "t": "Char", "d": "Lab/vendor" },
        { "n": "loincCode", "v": "--LOINC", "t": "Char", "d": "LOINC code" }
      ]
    },
    {
      "id": "STATUS_CO",
      "name": "CompletionStatus",
      "layer": "CO",
      "nodeType": "Attribute",
      "desc": "Collection status and completion indicators.",
      "source": "SDTM: Status variables",
      "props": [
        { "n": "status", "v": "--STAT", "t": "Char", "d": "NOT DONE if not collected" },
        { "n": "reasonNotDone", "v": "--REASND", "t": "Char", "d": "Reason not done" },
        { "n": "prespecified", "v": "--PRESP", "t": "Char", "d": "Protocol-defined (Y/null)" },
        { "n": "occurred", "v": "--OCCUR", "t": "Char", "d": "Y/N for prespecified" }
      ]
    },
    {
      "id": "EVALUATOR",
      "name": "Evaluator",
      "layer": "CO",
      "nodeType": "Attribute",
      "desc": "Subjective assessment evaluator.",
      "source": "SDTM: --EVAL,--EVALID",
      "props": [
        { "n": "evaluator", "v": "--EVAL", "t": "Char", "d": "Evaluator role" },
        { "n": "evaluatorId", "v": "--EVALID", "t": "Char", "d": "Evaluator ID" }
      ]
    },
    {
      "id": "SUPPQUAL",
      "name": "SupplementalQualifier",
      "layer": "CO",
      "nodeType": "Relationship",
      "desc": "Non-standard qualifier from SUPPQUAL dataset.",
      "source": "SDTM: SUPPQUAL",
      "props": [
        { "n": "name", "v": "QNAM", "t": "Char", "d": "Qualifier name" },
        { "n": "label", "v": "QLABEL", "t": "Char", "d": "Qualifier label" },
        { "n": "value", "v": "QVAL", "t": "Char", "d": "Data value" },
        { "n": "origin", "v": "QORIG", "t": "Char", "d": "Collected/derived/assigned" }
      ]
    },
    {
      "id": "RELRECORD",
      "name": "RelatedRecord",
      "layer": "CO",
      "nodeType": "Relationship",
      "desc": "Cross-domain record linkage via RELREC.",
      "source": "SDTM: RELREC,RELSUB,RELSPEC",
      "props": [
        { "n": "relType", "v": "RELTYPE", "t": "Char", "d": "ONE or MANY" },
        { "n": "relId", "v": "RELID", "t": "Char", "d": "Relationship ID" }
      ]
    },
    {
      "id": "DERIVATION",
      "name": "Derivation",
      "layer": "DC",
      "nodeType": "Class",
      "desc": "A derived datum computed from Observations. IS_A Datum. The unit of ADaM (BDS, OCCDS).",
      "source": "ADaM OCCDS v1.1, ADaMIG v1.3",
      "props": [
        { "n": "sourceSeq", "v": "--SEQ/SRCSEQ", "t": "Num", "d": "Source sequence" },
        { "n": "sourceDomain", "v": "SRCDOM", "t": "Char", "d": "Source domain" },
        { "n": "sourceVar", "v": "SRCVAR", "t": "Char", "d": "Source variable" },
        { "n": "analysisSeq", "v": "ASEQ", "t": "Num", "d": "ADaM sequence" }
      ]
    },
    {
      "id": "DERIVED_MEASURE",
      "name": "DerivedMeasure",
      "layer": "DC",
      "nodeType": "Attribute",
      "desc": "The derived analytical measurement: parameter identification and computed values (baseline, change, shift, criteria).",
      "source": "ADaMIG: Analysis Parameter variable set",
      "props": [
        { "n": "paramCode", "v": "PARAMCD", "t": "Char", "d": "Short code (8 chars max)" },
        { "n": "param", "v": "PARAM", "t": "Char", "d": "Full description (200 chars)" }
      ]
    },
    {
      "id": "TIMING_DC",
      "name": "DerivationTiming",
      "layer": "DC",
      "nodeType": "Timing",
      "desc": "Derived temporal context: imputed dates, relative days, visits, periods, phases, windows.",
      "source": "ADaMIG: Timing + Visit Windowing + Period/Phase",
      "props": [
        { "n": "analysisDate", "v": "ADT/ASTDT/AENDT", "t": "Num", "d": "Analysis dates" },
        { "n": "analysisTime", "v": "ATM/ASTTM/AENTM", "t": "Num", "d": "Analysis times" },
        { "n": "analysisDatetime", "v": "ADTM/ASTDTM/AENDTM", "t": "Num", "d": "Analysis datetimes" },
        { "n": "dateImputationFlag", "v": "ADTF/ASTDTF/AENDTF", "t": "Char", "d": "Date imputation level" },
        { "n": "timeImputationFlag", "v": "ATMF/ASTTMF/AENTMF", "t": "Char", "d": "Time imputation level" },
        { "n": "relDay", "v": "ADY/ASTDY/AENDY", "t": "Num", "d": "Relative days" },
        { "n": "duration", "v": "ADURN", "t": "Num", "d": "Analysis duration" },
        { "n": "durationUnit", "v": "ADURU", "t": "Char", "d": "Duration units" },
        { "n": "visit", "v": "AVISIT/AVISITN", "t": "Mixed", "d": "Analysis visit" },
        { "n": "period", "v": "APERIOD/APERIODC", "t": "Mixed", "d": "Period" },
        { "n": "phase", "v": "APHASE", "t": "Char", "d": "Phase (SCREENING, ON TREATMENT, FOLLOW-UP)" },
        { "n": "windowTarget", "v": "AWTARGET", "t": "Num", "d": "Window target day" },
        { "n": "windowRange", "v": "AWLO/AWHI", "t": "Num", "d": "Window bounds" }
      ]
    },
    {
      "id": "FLAG_DC",
      "name": "DerivationFlag",
      "layer": "DC",
      "nodeType": "Classification",
      "desc": "Derived indicators: baseline, treatment-emergent, on-treatment, analysis selection flags.",
      "source": "ADaMIG: Flag variable set",
      "props": [
        { "n": "baselineFlag", "v": "ABLFL", "t": "Char", "d": "Baseline record" },
        { "n": "treatmentEmergent", "v": "TRTEMFL", "t": "Char", "d": "Treatment-emergent" },
        { "n": "treatmentEmergentPeriod", "v": "TREMxxFL", "t": "Char", "d": "Treatment-emergent period xx" },
        { "n": "onTreatment", "v": "ONTRTFL", "t": "Char", "d": "On treatment" },
        { "n": "onTreatmentPeriod", "v": "ONTRxxFL", "t": "Char", "d": "On treatment period xx" },
        { "n": "preTreatment", "v": "PREFL", "t": "Char", "d": "Pre-treatment" },
        { "n": "followUp", "v": "FUPFL", "t": "Char", "d": "Follow-up" },
        { "n": "analysisFlag", "v": "ANLzzFL", "t": "Char", "d": "Generic analysis flag" }
      ]
    },
    {
      "id": "OCCURRENCE",
      "name": "OccurrenceClassification",
      "layer": "DC",
      "nodeType": "Classification",
      "desc": "OCCDS: first-occurrence logic, max-severity, imputed severity/causality/toxicity, SMQ/CQ.",
      "source": "ADaM OCCDS v1.1",
      "props": [
        { "n": "firstOccSubj", "v": "AOCCFL", "t": "Char", "d": "1st in subject" },
        { "n": "firstOccPT", "v": "AOCCPFL", "t": "Char", "d": "1st of preferred term" },
        { "n": "firstMaxSev", "v": "AOCCIFL", "t": "Char", "d": "1st max severity" },
        { "n": "firstMaxSevPT", "v": "AOCCPIFL", "t": "Char", "d": "1st max severity within PT" },
        { "n": "firstOccSOC", "v": "AOCCSFL", "t": "Char", "d": "1st of SOC" },
        { "n": "firstMaxSevSOC", "v": "AOCCSIFL", "t": "Char", "d": "1st max severity within SOC" },
        { "n": "analysisSeverity", "v": "ASEV/ASEVN", "t": "Mixed", "d": "Imputed severity" },
        { "n": "analysisCausality", "v": "AREL/ARELN", "t": "Mixed", "d": "Imputed causality" },
        { "n": "analysisToxGrade", "v": "ATOXGR/ATOXGRN", "t": "Mixed", "d": "Imputed toxicity grade" },
        { "n": "severityGroup", "v": "SEVGRy/SEVGRyN", "t": "Mixed", "d": "Pooled severity group" },
        { "n": "causalityGroup", "v": "RELGRy/RELGRyN", "t": "Mixed", "d": "Pooled causality group" },
        { "n": "toxGradeGroup", "v": "TOXGGRy/TOXGGRyN", "t": "Mixed", "d": "Pooled toxicity group" },
        { "n": "smqName", "v": "SMQzzNAM", "t": "Char", "d": "Standardized MedDRA Query name" },
        { "n": "smqCode", "v": "SMQzzCD", "t": "Num", "d": "SMQ code" },
        { "n": "smqScope", "v": "SMQzzSC", "t": "Char", "d": "SMQ scope (BROAD/NARROW)" },
        { "n": "cqName", "v": "CQzzNAM", "t": "Char", "d": "Customized Query name" }
      ]
    },
    {
      "id": "TREATMENT_DC",
      "name": "TreatmentContext",
      "layer": "DC",
      "nodeType": "Attribute",
      "desc": "Record-level treatment: planned, actual, pooled, dose information.",
      "source": "ADaMIG: Treatment + Dose",
      "props": [
        { "n": "plannedTrt", "v": "TRTP/TRTPN", "t": "Mixed", "d": "Planned treatment" },
        { "n": "actualTrt", "v": "TRTA/TRTAN", "t": "Mixed", "d": "Actual treatment" },
        { "n": "plannedTrtPeriod", "v": "TRTxxP/TRTxxPN", "t": "Mixed", "d": "Planned treatment period xx" },
        { "n": "actualTrtPeriod", "v": "TRTxxA/TRTxxAN", "t": "Mixed", "d": "Actual treatment period xx" },
        { "n": "pooledPlanned", "v": "TRxxPGy", "t": "Char", "d": "Pooled planned treatment" },
        { "n": "pooledActual", "v": "TRxxAGy", "t": "Char", "d": "Pooled actual treatment" },
        { "n": "treatmentSequence", "v": "TRTSEQP/TRTSEQA", "t": "Char", "d": "Treatment sequence" },
        { "n": "doseAtRecord", "v": "DOSEON", "t": "Num", "d": "Dose at record start" },
        { "n": "cumDose", "v": "DOSCUMA", "t": "Num", "d": "Cumulative dose" },
        { "n": "doseUnit", "v": "DOSEU", "t": "Char", "d": "Dose units" }
      ]
    },
    {
      "id": "RANGE_DC",
      "name": "RangeAssessment",
      "layer": "DC",
      "nodeType": "Classification",
      "desc": "Toxicity grading, range indicators, normal ranges.",
      "source": "ADaMIG: Toxicity and Range",
      "props": [
        { "n": "toxGrade", "v": "ATOXGR", "t": "Char", "d": "Analysis tox grade" },
        { "n": "baselineToxGrade", "v": "BTOXGR", "t": "Char", "d": "Baseline tox grade" },
        { "n": "rangeIndicator", "v": "ANRIND", "t": "Char", "d": "Analysis range indicator" },
        { "n": "baselineRangeInd", "v": "BNRIND", "t": "Char", "d": "Baseline range indicator" },
        { "n": "normalLow", "v": "ANRLO", "t": "Num", "d": "Analysis normal low" },
        { "n": "normalHigh", "v": "ANRHI", "t": "Num", "d": "Analysis normal high" },
        { "n": "customRangeLow", "v": "AyLO", "t": "Num", "d": "Custom range low" },
        { "n": "customRangeHigh", "v": "AyHI", "t": "Num", "d": "Custom range high" }
      ]
    },
    {
      "id": "POPULATION",
      "name": "PopulationIndicator",
      "layer": "DC",
      "nodeType": "Classification",
      "desc": "Population flags at subject, record, and parameter levels.",
      "source": "ADaMIG: Population Indicators",
      "props": [
        { "n": "fullAnalysisSet", "v": "FASFL/FASFN", "t": "Mixed", "d": "Full analysis set" },
        { "n": "safety", "v": "SAFFL/SAFFN", "t": "Mixed", "d": "Safety population" },
        { "n": "itt", "v": "ITTFL/ITTFN", "t": "Mixed", "d": "Intent-to-treat" },
        { "n": "perProtocol", "v": "PPROTFL", "t": "Char", "d": "Per-protocol" },
        { "n": "completers", "v": "COMPLFL", "t": "Char", "d": "Completers" },
        { "n": "randomized", "v": "RANDFL", "t": "Char", "d": "Randomized" },
        { "n": "enrolled", "v": "ENRLFL", "t": "Char", "d": "Enrolled" },
        { "n": "recordPopFlag", "v": "ITTRFL/SAFRFL", "t": "Char", "d": "Record-level population" },
        { "n": "paramPopFlag", "v": "ITTPFL/SAFPFL", "t": "Char", "d": "Parameter-level population" }
      ]
    },
    {
      "id": "TTE",
      "name": "TimeToEvent",
      "layer": "DC",
      "nodeType": "Attribute",
      "desc": "Time-to-event specific variables: origin, censoring, event descriptions.",
      "source": "ADaM BDS for TTE v1.0",
      "props": [
        { "n": "originDate", "v": "STARTDT", "t": "Num", "d": "Time-to-event origin date" },
        { "n": "originDatetime", "v": "STARTDTM", "t": "Num", "d": "Origin datetime" },
        { "n": "originDateImpFlag", "v": "STARTDTF", "t": "Char", "d": "Origin date imputation flag" },
        { "n": "originTimeImpFlag", "v": "STARTTMF", "t": "Char", "d": "Origin time imputation flag" },
        { "n": "censorIndicator", "v": "CNSR", "t": "Num", "d": "Censor (0=event, >0=censored)" },
        { "n": "eventDescription", "v": "EVNTDESC", "t": "Char", "d": "Event or censoring description" },
        { "n": "censorDateDesc", "v": "CNSDTDSC", "t": "Char", "d": "Censoring date description" }
      ]
    },
    {
      "id": "INFERENCE",
      "name": "Inference",
      "layer": "AC",
      "nodeType": "Class",
      "desc": "An analytical conclusion produced by applying a statistical method to Derivations. IS_A Datum.",
      "source": "CAMIS ReifiedConcepts",
      "props": [
        { "n": "methodClass", "v": "Class", "t": "Char", "d": "Method category" },
        { "n": "inferenceType", "v": "Type", "t": "Char", "d": "Derivation or Analysis" },
        { "n": "purpose", "v": "Statistical Purpose", "t": "Char", "d": "What it determines" }
      ]
    },
    {
      "id": "AC_SUMSTAT",
      "name": "SummaryStatistic",
      "layer": "AC",
      "nodeType": "Class",
      "desc": "Computed data summaries: rounding, quantiles, skewness, kurtosis.",
      "source": "CAMIS: Summary Statistics",
      "props": [
        { "n": "roundMethod", "v": "method", "t": "enum", "d": "half_up/half_even/half_down" },
        { "n": "quantileType", "v": "type", "t": "int", "d": "Algorithm 1-9(R), 1-5(SAS)" },
        { "n": "digits", "v": "digits", "t": "int", "d": "Decimal places" }
      ]
    },
    {
      "id": "AC_GLM",
      "name": "GeneralLinearModel",
      "layer": "AC",
      "nodeType": "Class",
      "desc": "GLM family: t-tests, ANOVA, ANCOVA, MANOVA, linear regression.",
      "source": "CAMIS: General Linear Models",
      "props": [
        { "n": "formula", "v": "formula", "t": "formula", "d": "Model specification" },
        { "n": "ssType", "v": "type", "t": "int", "d": "Sum of squares I/II/III/IV" },
        { "n": "alternative", "v": "alternative", "t": "enum", "d": "two.sided/less/greater" },
        { "n": "dfMethod", "v": "df.method", "t": "enum", "d": "Degrees of freedom method" }
      ]
    },
    {
      "id": "AC_GLZM",
      "name": "GeneralizedLinearModel",
      "layer": "AC",
      "nodeType": "Class",
      "desc": "GLZMs: logistic, Poisson, negative binomial regression.",
      "source": "CAMIS: Generalized Linear Models",
      "props": [
        { "n": "family", "v": "family", "t": "enum", "d": "binomial/poisson/negbinomial" },
        { "n": "link", "v": "link", "t": "enum", "d": "Link function" },
        { "n": "contrasts", "v": "contrasts", "t": "enum", "d": "Factor coding scheme" }
      ]
    },
    {
      "id": "AC_NONPAR",
      "name": "NonParametricTest",
      "layer": "AC",
      "nodeType": "Class",
      "desc": "Rank-based tests: Wilcoxon, Mann-Whitney, Kruskal-Wallis, Friedman.",
      "source": "CAMIS: Non-Parametric",
      "props": [
        { "n": "exact", "v": "exact", "t": "boolean", "d": "Exact p-value" },
        { "n": "correction", "v": "correct", "t": "boolean", "d": "Continuity correction" },
        { "n": "tieMethod", "v": "ties.method", "t": "enum", "d": "Tie handling" }
      ]
    },
    {
      "id": "AC_CATEG",
      "name": "CategoricalTest",
      "layer": "AC",
      "nodeType": "Class",
      "desc": "Categorical data tests: Chi-square, Fisher's exact, McNemar's, CMH.",
      "source": "CAMIS: Categorical",
      "props": [
        { "n": "correction", "v": "correct", "t": "boolean", "d": "Yates correction" },
        { "n": "simulate", "v": "simulate.p.value", "t": "boolean", "d": "Monte Carlo simulation" }
      ]
    },
    {
      "id": "AC_REPEAT",
      "name": "RepeatedMeasures",
      "layer": "AC",
      "nodeType": "Class",
      "desc": "Correlated data: MMRM (Linear Mixed Model), GEE.",
      "source": "CAMIS: Repeated Measures",
      "props": [
        { "n": "correlation", "v": "correlation", "t": "enum", "d": "UN/CS/AR(1)/TOEP" },
        { "n": "random", "v": "random", "t": "formula", "d": "Random effects" },
        { "n": "dfMethod", "v": "ddfm", "t": "enum", "d": "Kenward-Roger/Satterthwaite" }
      ]
    },
    {
      "id": "AC_SURV",
      "name": "SurvivalModel",
      "layer": "AC",
      "nodeType": "Class",
      "desc": "Time-to-event: Kaplan-Meier, log-rank, Cox PH.",
      "source": "CAMIS: Survival Models",
      "props": [
        { "n": "confType", "v": "conf.type", "t": "enum", "d": "log/log-log/plain" },
        { "n": "ties", "v": "ties", "t": "enum", "d": "efron/breslow/exact" },
        { "n": "confInt", "v": "conf.int", "t": "numeric", "d": "Confidence level" }
      ]
    },
    {
      "id": "AC_CORR",
      "name": "CorrelationAnalysis",
      "layer": "AC",
      "nodeType": "Class",
      "desc": "Association measures: Pearson, Spearman, Kendall correlation.",
      "source": "CAMIS: Correlation",
      "props": [
        { "n": "method", "v": "method", "t": "enum", "d": "pearson/spearman/kendall" },
        { "n": "usePairwise", "v": "use", "t": "enum", "d": "complete.obs/pairwise.complete.obs" }
      ]
    },
    {
      "id": "AC_SSIZE",
      "name": "SampleSizeCalculation",
      "layer": "AC",
      "nodeType": "Class",
      "desc": "Sample size/power: Superiority, Equivalence, Non-inferiority.",
      "source": "CAMIS: Sample size",
      "props": [
        { "n": "alpha", "v": "alpha", "t": "numeric", "d": "Type I error" },
        { "n": "power", "v": "power", "t": "numeric", "d": "Power" },
        { "n": "margin", "v": "margin", "t": "numeric", "d": "Equivalence/NI margin" },
        { "n": "ratio", "v": "ratio", "t": "numeric", "d": "Allocation ratio" }
      ]
    },
    {
      "id": "AC_CAUSAL",
      "name": "CausalInference",
      "layer": "AC",
      "nodeType": "Class",
      "desc": "Causal/ML methods: Propensity Score Matching, PCA, Clustering.",
      "source": "CAMIS: Causal/ML",
      "props": [
        { "n": "k", "v": "k", "t": "int", "d": "Number of clusters/components" },
        { "n": "matching", "v": "method", "t": "enum", "d": "Matching method" }
      ]
    },
    {
      "id": "CROSSLANG",
      "name": "CrossLanguageDifference",
      "layer": "AC",
      "nodeType": "QualityAttribute",
      "desc": "52 documented behavioral differences between R, SAS, Python for the same method.",
      "source": "CAMIS: CrossLanguageDifferences",
      "props": [
        { "n": "methodology", "v": "Methodology", "t": "Char", "d": "Method name" },
        { "n": "difference", "v": "Difference", "t": "Char", "d": "Specific divergence" },
        { "n": "rBehavior", "v": "R_Behavior", "t": "Char", "d": "R implementation" },
        { "n": "sasBehavior", "v": "SAS_Behavior", "t": "Char", "d": "SAS implementation" },
        { "n": "pythonBehavior", "v": "Python_Behavior", "t": "Char", "d": "Python implementation" }
      ]
    },
    {
      "id": "ONTOLOGY",
      "name": "OntologyMapping",
      "layer": "AC",
      "nodeType": "Classification",
      "desc": "STATO ontology alignment for analysis methods.",
      "source": "CAMIS: STATO_Mappings",
      "props": [
        { "n": "statoCode", "v": "STATO Code", "t": "Char", "d": "STATO ID" },
        { "n": "statoLabel", "v": "STATO Label", "t": "Char", "d": "STATO term" },
        { "n": "mappingStatus", "v": "Status", "t": "Char", "d": "MAPPED/UNMAPPED" },
        { "n": "confidence", "v": "Confidence", "t": "Num", "d": "Mapping confidence 0-1" }
      ]
    },
    {
      "id": "M_TTEST_1SAMP",
      "name": "OneSampleTTest",
      "layer": "AC",
      "nodeType": "Method",
      "desc": "One-sample t-test for comparing sample mean to known value.",
      "source": "CAMIS",
      "statoCode": "STATO:0000302",
      "props": [
        { "n": "mu", "v": "mu", "t": "numeric", "d": "Null hypothesis mean" },
        { "n": "alternative", "v": "alternative", "t": "enum", "d": "two.sided/less/greater" },
        { "n": "confLevel", "v": "conf.level", "t": "numeric", "d": "Confidence level" }
      ]
    },
    {
      "id": "M_TTEST_PAIRED",
      "name": "PairedTTest",
      "layer": "AC",
      "nodeType": "Method",
      "desc": "Paired t-test for comparing means of matched samples.",
      "source": "CAMIS",
      "statoCode": "STATO:0000313",
      "props": [
        { "n": "paired", "v": "paired", "t": "boolean", "d": "TRUE for paired" },
        { "n": "alternative", "v": "alternative", "t": "enum", "d": "two.sided/less/greater" },
        { "n": "confLevel", "v": "conf.level", "t": "numeric", "d": "Confidence level" }
      ]
    },
    {
      "id": "M_TTEST_2SAMP",
      "name": "TwoSampleTTest",
      "layer": "AC",
      "nodeType": "Method",
      "desc": "Two-sample t-test for comparing means of independent groups.",
      "source": "CAMIS",
      "statoCode": "STATO:0000323",
      "props": [
        { "n": "varEqual", "v": "var.equal", "t": "boolean", "d": "Assume equal variances" },
        { "n": "alternative", "v": "alternative", "t": "enum", "d": "two.sided/less/greater" },
        { "n": "confLevel", "v": "conf.level", "t": "numeric", "d": "Confidence level" }
      ]
    },
    {
      "id": "M_ANOVA",
      "name": "ANOVA",
      "layer": "AC",
      "nodeType": "Method",
      "desc": "Analysis of Variance for comparing means across multiple groups.",
      "source": "CAMIS",
      "statoCode": "STATO:0000334",
      "props": [
        { "n": "formula", "v": "formula", "t": "formula", "d": "Model formula" },
        { "n": "ssType", "v": "type", "t": "int", "d": "Sum of squares type I/II/III" }
      ]
    },
    {
      "id": "M_ANCOVA",
      "name": "ANCOVA",
      "layer": "AC",
      "nodeType": "Method",
      "desc": "Analysis of Covariance combining ANOVA with regression covariates.",
      "source": "CAMIS",
      "statoCode": "STATO:0000345",
      "props": [
        { "n": "formula", "v": "formula", "t": "formula", "d": "Model formula with covariates" },
        { "n": "ssType", "v": "type", "t": "int", "d": "Sum of squares type I/II/III" },
        { "n": "lsmeans", "v": "lsmeans", "t": "boolean", "d": "Compute LS means" }
      ]
    },
    {
      "id": "M_MANOVA",
      "name": "MANOVA",
      "layer": "AC",
      "nodeType": "Method",
      "desc": "Multivariate Analysis of Variance for multiple dependent variables.",
      "source": "CAMIS",
      "props": [
        { "n": "formula", "v": "formula", "t": "formula", "d": "Model formula" },
        { "n": "testStatistic", "v": "test", "t": "enum", "d": "Pillai/Wilks/Hotelling/Roy" }
      ]
    },
    {
      "id": "M_LINREG",
      "name": "LinearRegression",
      "layer": "AC",
      "nodeType": "Method",
      "desc": "Linear regression for modeling continuous outcomes.",
      "source": "CAMIS",
      "statoCode": "STATO:0000351",
      "props": [
        { "n": "formula", "v": "formula", "t": "formula", "d": "Model formula" },
        { "n": "weights", "v": "weights", "t": "numeric", "d": "Observation weights" }
      ]
    },
    {
      "id": "M_LOGREG",
      "name": "LogisticRegression",
      "layer": "AC",
      "nodeType": "Method",
      "desc": "Logistic regression for binary outcomes.",
      "source": "CAMIS",
      "props": [
        { "n": "formula", "v": "formula", "t": "formula", "d": "Model formula" },
        { "n": "family", "v": "family", "t": "enum", "d": "binomial(link='logit')" }
      ]
    },
    {
      "id": "M_POISREG",
      "name": "PoissonRegression",
      "layer": "AC",
      "nodeType": "Method",
      "desc": "Poisson regression for count data.",
      "source": "CAMIS",
      "props": [
        { "n": "formula", "v": "formula", "t": "formula", "d": "Model formula" },
        { "n": "family", "v": "family", "t": "enum", "d": "poisson(link='log')" },
        { "n": "offset", "v": "offset", "t": "numeric", "d": "Exposure offset" }
      ]
    },
    {
      "id": "M_NBREG",
      "name": "NegativeBinomialRegression",
      "layer": "AC",
      "nodeType": "Method",
      "desc": "Negative binomial regression for overdispersed count data.",
      "source": "CAMIS",
      "props": [
        { "n": "formula", "v": "formula", "t": "formula", "d": "Model formula" },
        { "n": "theta", "v": "theta", "t": "numeric", "d": "Dispersion parameter" }
      ]
    },
    {
      "id": "M_WILCOX_SR",
      "name": "WilcoxonSignedRank",
      "layer": "AC",
      "nodeType": "Method",
      "desc": "Wilcoxon signed-rank test for paired samples.",
      "source": "CAMIS",
      "props": [
        { "n": "exact", "v": "exact", "t": "boolean", "d": "Exact p-value" },
        { "n": "correct", "v": "correct", "t": "boolean", "d": "Continuity correction" }
      ]
    },
    {
      "id": "M_MANN_WHIT",
      "name": "MannWhitney",
      "layer": "AC",
      "nodeType": "Method",
      "desc": "Mann-Whitney U test (Wilcoxon rank-sum) for independent samples.",
      "source": "CAMIS",
      "props": [
        { "n": "exact", "v": "exact", "t": "boolean", "d": "Exact p-value" },
        { "n": "correct", "v": "correct", "t": "boolean", "d": "Continuity correction" }
      ]
    },
    {
      "id": "M_KRUSKAL",
      "name": "KruskalWallis",
      "layer": "AC",
      "nodeType": "Method",
      "desc": "Kruskal-Wallis test for comparing multiple independent groups.",
      "source": "CAMIS",
      "props": []
    },
    {
      "id": "M_FRIEDMAN",
      "name": "Friedman",
      "layer": "AC",
      "nodeType": "Method",
      "desc": "Friedman test for comparing multiple related samples.",
      "source": "CAMIS",
      "props": []
    },
    {
      "id": "M_CHISQ",
      "name": "ChiSquare",
      "layer": "AC",
      "nodeType": "Method",
      "desc": "Chi-square test for independence in contingency tables.",
      "source": "CAMIS",
      "props": [
        { "n": "correct", "v": "correct", "t": "boolean", "d": "Yates correction" },
        { "n": "simulate", "v": "simulate.p.value", "t": "boolean", "d": "Monte Carlo" }
      ]
    },
    {
      "id": "M_FISHER",
      "name": "FisherExact",
      "layer": "AC",
      "nodeType": "Method",
      "desc": "Fisher's exact test for small sample contingency tables.",
      "source": "CAMIS",
      "props": [
        { "n": "alternative", "v": "alternative", "t": "enum", "d": "two.sided/less/greater" }
      ]
    },
    {
      "id": "M_MCNEMAR",
      "name": "McNemar",
      "layer": "AC",
      "nodeType": "Method",
      "desc": "McNemar's test for paired nominal data.",
      "source": "CAMIS",
      "props": [
        { "n": "correct", "v": "correct", "t": "boolean", "d": "Continuity correction" }
      ]
    },
    {
      "id": "M_CMH",
      "name": "CochranMantelHaenszel",
      "layer": "AC",
      "nodeType": "Method",
      "desc": "Cochran-Mantel-Haenszel test for stratified categorical data.",
      "source": "CAMIS",
      "props": [
        { "n": "correct", "v": "correct", "t": "boolean", "d": "Continuity correction" }
      ]
    },
    {
      "id": "M_MMRM",
      "name": "MMRM",
      "layer": "AC",
      "nodeType": "Method",
      "desc": "Mixed Model for Repeated Measures.",
      "source": "CAMIS",
      "props": [
        { "n": "correlation", "v": "correlation", "t": "enum", "d": "UN/CS/AR(1)/TOEP" },
        { "n": "ddfm", "v": "ddfm", "t": "enum", "d": "KR/Satterthwaite" },
        { "n": "random", "v": "random", "t": "formula", "d": "Random effects" }
      ]
    },
    {
      "id": "M_GEE",
      "name": "GEE",
      "layer": "AC",
      "nodeType": "Method",
      "desc": "Generalized Estimating Equations for correlated data.",
      "source": "CAMIS",
      "props": [
        { "n": "corstr", "v": "corstr", "t": "enum", "d": "independence/exchangeable/ar1/unstructured" },
        { "n": "family", "v": "family", "t": "enum", "d": "Distribution family" }
      ]
    },
    {
      "id": "M_KM",
      "name": "KaplanMeier",
      "layer": "AC",
      "nodeType": "Method",
      "desc": "Kaplan-Meier survival curve estimation.",
      "source": "CAMIS",
      "props": [
        { "n": "confType", "v": "conf.type", "t": "enum", "d": "log/log-log/plain" },
        { "n": "confInt", "v": "conf.int", "t": "numeric", "d": "Confidence level" },
        { "n": "errorType", "v": "error", "t": "enum", "d": "greenwood/tsiatis" }
      ]
    },
    {
      "id": "M_LOGRANK",
      "name": "LogRank",
      "layer": "AC",
      "nodeType": "Method",
      "desc": "Log-rank test for comparing survival curves.",
      "source": "CAMIS",
      "props": [
        { "n": "rho", "v": "rho", "t": "numeric", "d": "Weight parameter (0=log-rank)" }
      ]
    },
    {
      "id": "M_COXPH",
      "name": "CoxProportionalHazards",
      "layer": "AC",
      "nodeType": "Method",
      "desc": "Cox proportional hazards regression for survival analysis.",
      "source": "CAMIS",
      "props": [
        { "n": "ties", "v": "ties", "t": "enum", "d": "efron/breslow/exact" },
        { "n": "formula", "v": "formula", "t": "formula", "d": "Model formula" }
      ]
    },
    {
      "id": "M_PEARSON",
      "name": "PearsonCorrelation",
      "layer": "AC",
      "nodeType": "Method",
      "desc": "Pearson product-moment correlation coefficient.",
      "source": "CAMIS",
      "props": [
        { "n": "use", "v": "use", "t": "enum", "d": "complete.obs/pairwise" }
      ]
    },
    {
      "id": "M_SPEARMAN",
      "name": "SpearmanCorrelation",
      "layer": "AC",
      "nodeType": "Method",
      "desc": "Spearman rank correlation coefficient.",
      "source": "CAMIS",
      "props": [
        { "n": "exact", "v": "exact", "t": "boolean", "d": "Exact p-value" }
      ]
    },
    {
      "id": "M_KENDALL",
      "name": "KendallCorrelation",
      "layer": "AC",
      "nodeType": "Method",
      "desc": "Kendall's tau correlation coefficient.",
      "source": "CAMIS",
      "props": [
        { "n": "exact", "v": "exact", "t": "boolean", "d": "Exact p-value" }
      ]
    },
    {
      "id": "M_SSIZE_SUP",
      "name": "SampleSizeSuperiority",
      "layer": "AC",
      "nodeType": "Method",
      "desc": "Sample size calculation for superiority trials.",
      "source": "CAMIS",
      "props": [
        { "n": "alpha", "v": "alpha", "t": "numeric", "d": "Type I error" },
        { "n": "power", "v": "power", "t": "numeric", "d": "Power" },
        { "n": "delta", "v": "delta", "t": "numeric", "d": "Effect size" }
      ]
    },
    {
      "id": "M_SSIZE_EQUIV",
      "name": "SampleSizeEquivalence",
      "layer": "AC",
      "nodeType": "Method",
      "desc": "Sample size calculation for equivalence trials.",
      "source": "CAMIS",
      "props": [
        { "n": "alpha", "v": "alpha", "t": "numeric", "d": "Type I error" },
        { "n": "power", "v": "power", "t": "numeric", "d": "Power" },
        { "n": "margin", "v": "margin", "t": "numeric", "d": "Equivalence margin" }
      ]
    },
    {
      "id": "M_SSIZE_NI",
      "name": "SampleSizeNonInferiority",
      "layer": "AC",
      "nodeType": "Method",
      "desc": "Sample size calculation for non-inferiority trials.",
      "source": "CAMIS",
      "props": [
        { "n": "alpha", "v": "alpha", "t": "numeric", "d": "Type I error" },
        { "n": "power", "v": "power", "t": "numeric", "d": "Power" },
        { "n": "margin", "v": "margin", "t": "numeric", "d": "Non-inferiority margin" }
      ]
    },
    {
      "id": "M_PSM",
      "name": "PropensityScoreMatching",
      "layer": "AC",
      "nodeType": "Method",
      "desc": "Propensity score matching for causal inference.",
      "source": "CAMIS",
      "props": [
        { "n": "method", "v": "method", "t": "enum", "d": "nearest/optimal/full" },
        { "n": "caliper", "v": "caliper", "t": "numeric", "d": "Matching caliper" },
        { "n": "ratio", "v": "ratio", "t": "int", "d": "Matching ratio" }
      ]
    },
    {
      "id": "M_ROUNDING",
      "name": "Rounding",
      "layer": "AC",
      "nodeType": "Method",
      "desc": "Rounding methods with cross-language differences. R uses banker's rounding by default.",
      "source": "CAMIS",
      "props": [
        { "n": "method", "v": "method", "t": "enum", "d": "half_up/half_even/half_down" },
        { "n": "digits", "v": "digits", "t": "int", "d": "Decimal places" }
      ]
    },
    {
      "id": "M_QUANTILE",
      "name": "QuantilePercentile",
      "layer": "AC",
      "nodeType": "Method",
      "desc": "Quantile/percentile calculation with 9 types in R, 5 in SAS.",
      "source": "CAMIS",
      "props": [
        { "n": "type", "v": "type", "t": "int", "d": "Algorithm type 1-9" },
        { "n": "probs", "v": "probs", "t": "numeric", "d": "Probability points" }
      ]
    },
    {
      "id": "M_SKEWNESS",
      "name": "Skewness",
      "layer": "AC",
      "nodeType": "Method",
      "desc": "Skewness calculation.",
      "source": "CAMIS",
      "statoCode": "STATO:0000068",
      "props": [
        { "n": "type", "v": "type", "t": "int", "d": "Calculation type" }
      ]
    },
    {
      "id": "M_KURTOSIS",
      "name": "Kurtosis",
      "layer": "AC",
      "nodeType": "Method",
      "desc": "Kurtosis calculation.",
      "source": "CAMIS",
      "statoCode": "STATO:0000178",
      "props": [
        { "n": "type", "v": "type", "t": "int", "d": "Calculation type" },
        { "n": "excess", "v": "excess", "t": "boolean", "d": "Excess kurtosis" }
      ]
    },
    {
      "id": "OUT_PVALUE",
      "name": "P-Value",
      "layer": "OUTPUT",
      "nodeType": "OutputConcept",
      "desc": "Probability value for hypothesis testing. Common output across most statistical tests.",
      "source": "Shared output concept",
      "props": [
        { "n": "value", "v": "p.value", "t": "numeric", "d": "P-value (0-1)" },
        { "n": "sided", "v": "sided", "t": "enum", "d": "one-sided/two-sided" },
        { "n": "exact", "v": "exact", "t": "boolean", "d": "Exact vs asymptotic" }
      ]
    },
    {
      "id": "OUT_CI",
      "name": "ConfidenceInterval",
      "layer": "OUTPUT",
      "nodeType": "OutputConcept",
      "desc": "Confidence interval for parameter estimates.",
      "source": "Shared output concept",
      "props": [
        { "n": "lower", "v": "conf.low", "t": "numeric", "d": "Lower bound" },
        { "n": "upper", "v": "conf.high", "t": "numeric", "d": "Upper bound" },
        { "n": "level", "v": "conf.level", "t": "numeric", "d": "Confidence level (e.g., 0.95)" },
        { "n": "type", "v": "conf.type", "t": "enum", "d": "log/log-log/plain" }
      ]
    },
    {
      "id": "OUT_EFFECT",
      "name": "EffectEstimate",
      "layer": "OUTPUT",
      "nodeType": "OutputConcept",
      "desc": "Point estimate of treatment effect or group difference.",
      "source": "Shared output concept",
      "props": [
        { "n": "estimate", "v": "estimate", "t": "numeric", "d": "Point estimate" },
        { "n": "standardError", "v": "std.error", "t": "numeric", "d": "Standard error" }
      ]
    },
    {
      "id": "OUT_TSTAT",
      "name": "T-Statistic",
      "layer": "OUTPUT",
      "nodeType": "OutputConcept",
      "desc": "T-statistic from t-tests and related methods.",
      "source": "Shared output concept",
      "props": [
        { "n": "statistic", "v": "statistic", "t": "numeric", "d": "T-value" },
        { "n": "df", "v": "parameter", "t": "numeric", "d": "Degrees of freedom" }
      ]
    },
    {
      "id": "OUT_FSTAT",
      "name": "F-Statistic",
      "layer": "OUTPUT",
      "nodeType": "OutputConcept",
      "desc": "F-statistic from ANOVA and related methods.",
      "source": "Shared output concept",
      "props": [
        { "n": "statistic", "v": "statistic", "t": "numeric", "d": "F-value" },
        { "n": "dfNum", "v": "numDF", "t": "numeric", "d": "Numerator df" },
        { "n": "dfDen", "v": "denDF", "t": "numeric", "d": "Denominator df" }
      ]
    },
    {
      "id": "OUT_CHISQ",
      "name": "ChiSquareStatistic",
      "layer": "OUTPUT",
      "nodeType": "OutputConcept",
      "desc": "Chi-square statistic from categorical tests.",
      "source": "Shared output concept",
      "props": [
        { "n": "statistic", "v": "statistic", "t": "numeric", "d": "Chi-square value" },
        { "n": "df", "v": "parameter", "t": "numeric", "d": "Degrees of freedom" }
      ]
    },
    {
      "id": "OUT_HR",
      "name": "HazardRatio",
      "layer": "OUTPUT",
      "nodeType": "OutputConcept",
      "desc": "Hazard ratio from survival analysis.",
      "source": "Shared output concept",
      "props": [
        { "n": "hr", "v": "exp(coef)", "t": "numeric", "d": "Hazard ratio" },
        { "n": "hrLower", "v": "lower .95", "t": "numeric", "d": "HR lower CI" },
        { "n": "hrUpper", "v": "upper .95", "t": "numeric", "d": "HR upper CI" }
      ]
    },
    {
      "id": "OUT_OR",
      "name": "OddsRatio",
      "layer": "OUTPUT",
      "nodeType": "OutputConcept",
      "desc": "Odds ratio from logistic regression and categorical analyses.",
      "source": "Shared output concept",
      "props": [
        { "n": "or", "v": "odds.ratio", "t": "numeric", "d": "Odds ratio" },
        { "n": "orLower", "v": "conf.low", "t": "numeric", "d": "OR lower CI" },
        { "n": "orUpper", "v": "conf.high", "t": "numeric", "d": "OR upper CI" }
      ]
    },
    {
      "id": "OUT_SURVCURVE",
      "name": "SurvivalCurve",
      "layer": "OUTPUT",
      "nodeType": "OutputConcept",
      "desc": "Survival probability curve from Kaplan-Meier.",
      "source": "Shared output concept",
      "props": [
        { "n": "time", "v": "time", "t": "numeric", "d": "Time points" },
        { "n": "survival", "v": "surv", "t": "numeric", "d": "Survival probability" },
        { "n": "nRisk", "v": "n.risk", "t": "int", "d": "Number at risk" },
        { "n": "nEvent", "v": "n.event", "t": "int", "d": "Number of events" }
      ]
    },
    {
      "id": "OUT_CORR",
      "name": "CorrelationCoefficient",
      "layer": "OUTPUT",
      "nodeType": "OutputConcept",
      "desc": "Correlation coefficient from association analyses.",
      "source": "Shared output concept",
      "props": [
        { "n": "r", "v": "estimate", "t": "numeric", "d": "Correlation coefficient (-1 to 1)" },
        { "n": "rSquared", "v": "r.squared", "t": "numeric", "d": "R-squared" }
      ]
    },
    {
      "id": "OUT_LSMEAN",
      "name": "LSMean",
      "layer": "OUTPUT",
      "nodeType": "OutputConcept",
      "desc": "Least-squares mean (adjusted mean) from ANCOVA/MMRM.",
      "source": "Shared output concept",
      "props": [
        { "n": "lsmean", "v": "lsmean", "t": "numeric", "d": "LS mean estimate" },
        { "n": "se", "v": "SE", "t": "numeric", "d": "Standard error" },
        { "n": "df", "v": "df", "t": "numeric", "d": "Degrees of freedom" }
      ]
    },
    {
      "id": "OUT_SAMPLESIZE",
      "name": "SampleSizeResult",
      "layer": "OUTPUT",
      "nodeType": "OutputConcept",
      "desc": "Sample size calculation result.",
      "source": "Shared output concept",
      "props": [
        { "n": "n", "v": "n", "t": "int", "d": "Required sample size per group" },
        { "n": "nTotal", "v": "n.total", "t": "int", "d": "Total sample size" },
        { "n": "power", "v": "power", "t": "numeric", "d": "Achieved power" }
      ]
    },

    {
      "id": "QUANT_RESULT",
      "name": "QuantitativeResult",
      "layer": "CONCEPT",
      "nodeType": "SemanticConcept",
      "conceptType": "shared",
      "desc": "A numeric measurement value - the quantitative outcome of a measurement or derivation.",
      "coVariable": "--STRESN",
      "dcVariable": "AVAL",
      "source": "SDTM/ADaM shared concept",
      "props": []
    },
    {
      "id": "QUAL_RESULT",
      "name": "QualitativeResult",
      "layer": "CONCEPT",
      "nodeType": "SemanticConcept",
      "conceptType": "shared",
      "desc": "A categorical or text value - non-numeric representation of a measurement or derivation.",
      "coVariable": "--STRESC",
      "dcVariable": "AVALC",
      "source": "SDTM/ADaM shared concept",
      "props": []
    },
    {
      "id": "MEASURE_UNIT",
      "name": "MeasurementUnit",
      "layer": "CONCEPT",
      "nodeType": "SemanticConcept",
      "conceptType": "shared",
      "desc": "Unit of measurement for a quantitative result (e.g., mg/dL, mmHg, kg).",
      "coVariable": "--STRESU",
      "dcVariable": "(embedded in PARAM)",
      "source": "SDTM/ADaM shared concept",
      "props": []
    },
    {
      "id": "REF_RANGE",
      "name": "ReferenceRange",
      "layer": "CONCEPT",
      "nodeType": "SemanticConcept",
      "conceptType": "shared",
      "desc": "Expected or normal value bounds for a measurement, defining clinically acceptable limits.",
      "coVariable": "--NRLO, --NRHI",
      "dcVariable": "ANRLO, ANRHI",
      "source": "SDTM/ADaM shared concept",
      "props": []
    },
    {
      "id": "RANGE_CLASS",
      "name": "RangeClassification",
      "layer": "CONCEPT",
      "nodeType": "SemanticConcept",
      "conceptType": "shared",
      "desc": "Classification of a result relative to reference range (LOW, NORMAL, HIGH).",
      "coVariable": "--NRIND",
      "dcVariable": "ANRIND",
      "source": "SDTM/ADaM shared concept",
      "props": []
    },
    {
      "id": "TOX_GRADE",
      "name": "ToxicityGrade",
      "layer": "CONCEPT",
      "nodeType": "SemanticConcept",
      "conceptType": "shared",
      "desc": "Severity grading of adverse findings per CTCAE or similar toxicity scale (Grade 1-5).",
      "coVariable": "--TOXGR",
      "dcVariable": "ATOXGR",
      "source": "SDTM/ADaM shared concept",
      "props": []
    },
    {
      "id": "SEVERITY_CONCEPT",
      "name": "SeverityLevel",
      "layer": "CONCEPT",
      "nodeType": "SemanticConcept",
      "conceptType": "shared",
      "desc": "Intensity evaluation of an event or finding (MILD, MODERATE, SEVERE).",
      "coVariable": "--SEV",
      "dcVariable": "ASEV",
      "source": "SDTM/ADaM shared concept",
      "props": []
    },
    {
      "id": "CAUSALITY_CONCEPT",
      "name": "CausalityAssessment",
      "layer": "CONCEPT",
      "nodeType": "SemanticConcept",
      "conceptType": "shared",
      "desc": "Assessment of relationship between an event and study treatment.",
      "coVariable": "--REL",
      "dcVariable": "AREL",
      "source": "SDTM/ADaM shared concept",
      "props": []
    },
    {
      "id": "TEMPORAL_POINT",
      "name": "TemporalAnchor",
      "layer": "CONCEPT",
      "nodeType": "SemanticConcept",
      "conceptType": "shared",
      "desc": "A specific point in time when an observation or derivation occurred.",
      "coVariable": "--DTC, --STDTC",
      "dcVariable": "ADT, ASTDT",
      "source": "SDTM/ADaM shared concept",
      "props": []
    },
    {
      "id": "RELATIVE_TIME",
      "name": "RelativeTime",
      "layer": "CONCEPT",
      "nodeType": "SemanticConcept",
      "conceptType": "shared",
      "desc": "Time expressed as days (or other units) from a reference anchor date.",
      "coVariable": "--DY, --STDY",
      "dcVariable": "ADY, ASTDY",
      "source": "SDTM/ADaM shared concept",
      "props": []
    },
    {
      "id": "VISIT_CONTEXT",
      "name": "VisitContext",
      "layer": "CONCEPT",
      "nodeType": "SemanticConcept",
      "conceptType": "shared",
      "desc": "The scheduled or actual study visit associated with an observation.",
      "coVariable": "VISIT, VISITNUM",
      "dcVariable": "AVISIT, AVISITN",
      "source": "SDTM/ADaM shared concept",
      "props": []
    },
    {
      "id": "STUDY_PHASE",
      "name": "StudyPhase",
      "layer": "CONCEPT",
      "nodeType": "SemanticConcept",
      "conceptType": "shared",
      "desc": "Phase or epoch of the study (SCREENING, TREATMENT, FOLLOW-UP).",
      "coVariable": "EPOCH",
      "dcVariable": "APHASE",
      "source": "SDTM/ADaM shared concept",
      "props": []
    },
    {
      "id": "BASELINE_IND",
      "name": "BaselineIndicator",
      "layer": "CONCEPT",
      "nodeType": "SemanticConcept",
      "conceptType": "shared",
      "desc": "Flag indicating whether a record represents the baseline measurement.",
      "coVariable": "--BLFL",
      "dcVariable": "ABLFL",
      "source": "SDTM/ADaM shared concept",
      "props": []
    },
    {
      "id": "INDICATOR_FLAG",
      "name": "IndicatorFlag",
      "layer": "CONCEPT",
      "nodeType": "SemanticConcept",
      "conceptType": "shared",
      "desc": "A categorical flag indicating a status or classification for a record. Parent concept for all flag types.",
      "source": "SDTM/ADaM shared concept",
      "props": []
    },
    {
      "id": "DERIVATION_IND",
      "name": "DerivationIndicator",
      "layer": "CONCEPT",
      "nodeType": "SemanticConcept",
      "conceptType": "shared",
      "desc": "Flag indicating whether a value was derived rather than directly collected.",
      "coVariable": "--DRVFL",
      "dcVariable": "(via DTYPE)",
      "source": "SDTM/ADaM shared concept",
      "props": []
    },

    {
      "id": "BASELINE_VAL",
      "name": "BaselineValue",
      "layer": "DC_LEAF",
      "nodeType": "SemanticConcept",
      "conceptType": "derivation-specific",
      "desc": "The reference point value for comparison - the subject's value at baseline for a parameter.",
      "dcVariable": "BASE, BASEC",
      "parentConcept": "DERIVED_MEASURE",
      "source": "ADaMIG v1.3",
      "props": []
    },
    {
      "id": "CHANGE",
      "name": "ChangeFromBaseline",
      "layer": "DC_LEAF",
      "nodeType": "SemanticConcept",
      "conceptType": "derivation-specific",
      "desc": "Absolute change computed as analysis value minus baseline (AVAL - BASE).",
      "dcVariable": "CHG",
      "parentConcept": "DERIVED_MEASURE",
      "source": "ADaMIG v1.3",
      "props": []
    },
    {
      "id": "PCT_CHANGE",
      "name": "PercentChange",
      "layer": "DC_LEAF",
      "nodeType": "SemanticConcept",
      "conceptType": "derivation-specific",
      "desc": "Relative change from baseline expressed as percentage ((AVAL-BASE)/BASE)*100.",
      "dcVariable": "PCHG",
      "parentConcept": "DERIVED_MEASURE",
      "source": "ADaMIG v1.3",
      "props": []
    },
    {
      "id": "RATIO",
      "name": "RatioToBaseline",
      "layer": "DC_LEAF",
      "nodeType": "SemanticConcept",
      "conceptType": "derivation-specific",
      "desc": "Proportional comparison to baseline (AVAL / BASE).",
      "dcVariable": "R2BASE",
      "parentConcept": "DERIVED_MEASURE",
      "source": "ADaMIG v1.3",
      "props": []
    },
    {
      "id": "SHIFT",
      "name": "ShiftCategory",
      "layer": "DC_LEAF",
      "nodeType": "SemanticConcept",
      "conceptType": "derivation-specific",
      "desc": "Categorical transition from baseline to post-baseline (e.g., 'NORMAL to HIGH').",
      "dcVariable": "SHIFTy",
      "parentConcept": "DERIVED_MEASURE",
      "source": "ADaMIG v1.3",
      "props": []
    },
    {
      "id": "DERIV_METHOD",
      "name": "DerivationMethod",
      "layer": "DC_LEAF",
      "nodeType": "SemanticConcept",
      "conceptType": "derivation-specific",
      "desc": "How the analysis value was imputed or derived (LOCF, WOCF, AVERAGE, etc.).",
      "dcVariable": "DTYPE",
      "parentConcept": "DERIVED_MEASURE",
      "source": "ADaMIG v1.3",
      "props": []
    },
    {
      "id": "CRITERION",
      "name": "AnalysisCriterion",
      "layer": "DC_LEAF",
      "nodeType": "SemanticConcept",
      "conceptType": "derivation-specific",
      "desc": "Pre-specified condition to evaluate (e.g., 'SYSBP > 140').",
      "dcVariable": "CRITy, CRITyFL",
      "parentConcept": "DERIVED_MEASURE",
      "source": "ADaMIG v1.3",
      "props": []
    },
    {
      "id": "CENSOR",
      "name": "CensorStatus",
      "layer": "DC_LEAF",
      "nodeType": "SemanticConcept",
      "conceptType": "derivation-specific",
      "desc": "Indicator of whether subject experienced event (0) or was censored (positive integer).",
      "dcVariable": "CNSR",
      "parentConcept": "TTE",
      "source": "ADaM BDS for TTE",
      "props": []
    },
    {
      "id": "TIME_ORIGIN",
      "name": "TimeToEventOrigin",
      "layer": "DC_LEAF",
      "nodeType": "SemanticConcept",
      "conceptType": "derivation-specific",
      "desc": "Time-zero for survival analysis - when subject first became at risk.",
      "dcVariable": "STARTDT, STARTDTM",
      "parentConcept": "TTE",
      "source": "ADaM BDS for TTE",
      "props": []
    },
    {
      "id": "WINDOW",
      "name": "AnalysisWindow",
      "layer": "DC_LEAF",
      "nodeType": "SemanticConcept",
      "conceptType": "derivation-specific",
      "desc": "Time window for assigning observations to analysis visits.",
      "dcVariable": "AWRANGE, AWTARGET, AWLO, AWHI",
      "parentConcept": "TIMING_DC",
      "source": "ADaMIG v1.3",
      "props": []
    },
    {
      "id": "TREATMENT_PHASE_IND",
      "name": "TreatmentPhaseIndicator",
      "layer": "DC_LEAF",
      "nodeType": "SemanticConcept",
      "conceptType": "derivation-specific",
      "desc": "Flag indicating treatment phase classification (treatment-emergent, on-treatment, pre-treatment, follow-up).",
      "dcVariable": "TRTEMFL, ONTRTFL, PREFL, FUPFL",
      "parentConcept": "FLAG_DC",
      "source": "ADaMIG v1.3",
      "props": []
    },
    {
      "id": "TREATMENT_PERIOD_IND",
      "name": "TreatmentPeriodIndicator",
      "layer": "DC_LEAF",
      "nodeType": "SemanticConcept",
      "conceptType": "derivation-specific",
      "desc": "Flag indicating treatment period classification for multi-period studies.",
      "dcVariable": "TREMxxFL, ONTRxxFL",
      "parentConcept": "FLAG_DC",
      "source": "ADaMIG v1.3",
      "props": []
    },
    {
      "id": "ANALYSIS_SELECT_FLAG",
      "name": "AnalysisSelectionFlag",
      "layer": "DC_LEAF",
      "nodeType": "SemanticConcept",
      "conceptType": "derivation-specific",
      "desc": "Flag indicating whether a record is included in a specific analysis.",
      "dcVariable": "ANLzzFL",
      "parentConcept": "FLAG_DC",
      "source": "ADaMIG v1.3",
      "props": []
    },

    {
      "id": "ORIG_RESULT",
      "name": "OriginalResult",
      "layer": "CO_LEAF",
      "nodeType": "SemanticConcept",
      "conceptType": "collection-specific",
      "desc": "Verbatim result as originally collected before standardization.",
      "coVariable": "--ORRES, --ORRESU",
      "parentConcept": "RESULT",
      "source": "SDTM v2.1",
      "props": []
    },
    {
      "id": "COLLECTION_METHOD",
      "name": "CollectionMethod",
      "layer": "CO_LEAF",
      "nodeType": "SemanticConcept",
      "conceptType": "collection-specific",
      "desc": "The method, technique, or instrument used to obtain the observation.",
      "coVariable": "--METHOD",
      "parentConcept": "METHOD_CO",
      "source": "SDTM v2.1",
      "props": []
    },
    {
      "id": "SPECIMEN_CONCEPT",
      "name": "BiologicalSpecimen",
      "layer": "CO_LEAF",
      "nodeType": "SemanticConcept",
      "conceptType": "collection-specific",
      "desc": "The biological sample from which a finding was obtained.",
      "coVariable": "--SPEC, --SPCCND",
      "parentConcept": "SPECIMEN",
      "source": "SDTM v2.1",
      "props": []
    },
    {
      "id": "EVALUATOR_CONCEPT",
      "name": "Evaluator",
      "layer": "CO_LEAF",
      "nodeType": "SemanticConcept",
      "conceptType": "collection-specific",
      "desc": "The person or role who assessed or evaluated the observation.",
      "coVariable": "--EVAL, --EVALID",
      "parentConcept": "EVALUATOR",
      "source": "SDTM v2.1",
      "props": []
    },
    {
      "id": "COMPLETION",
      "name": "CompletionStatus",
      "layer": "CO_LEAF",
      "nodeType": "SemanticConcept",
      "conceptType": "collection-specific",
      "desc": "Whether the observation was collected (DONE/NOT DONE) and reason if not.",
      "coVariable": "--STAT, --REASND",
      "parentConcept": "STATUS_CO",
      "source": "SDTM v2.1",
      "props": []
    },
    {
      "id": "ANATOMY_CONCEPT",
      "name": "AnatomicalSite",
      "layer": "CO_LEAF",
      "nodeType": "SemanticConcept",
      "conceptType": "collection-specific",
      "desc": "The body location where the observation was made.",
      "coVariable": "--LOC, --LAT, --DIR",
      "parentConcept": "ANATOMY",
      "source": "SDTM v2.1",
      "props": []
    },
    {
      "id": "DICTIONARY",
      "name": "DictionaryCoding",
      "layer": "CO_LEAF",
      "nodeType": "SemanticConcept",
      "conceptType": "collection-specific",
      "desc": "Standardized coding from medical dictionaries (MedDRA, WHODrug).",
      "coVariable": "--DECOD, --BODSYS, --LLT, --HLT, --HLGT, --SOC",
      "parentConcept": "DICTCODING",
      "source": "SDTM v2.1",
      "props": []
    },

    { "_comment": "=== PHASE 4B: TREATMENT LEAF CONCEPTS ===" },
    {
      "id": "THERAPEUTIC_INTENT",
      "name": "TherapeuticIntent",
      "layer": "DC_LEAF",
      "nodeType": "SemanticConcept",
      "conceptType": "derivation-specific",
      "desc": "What therapy was planned or intended for the subject according to the protocol.",
      "dcVariable": "TRTP, TRTPN",
      "parentConcept": "TREATMENT_DC",
      "source": "ADaMIG v1.3",
      "props": []
    },
    {
      "id": "THERAPEUTIC_EXPOSURE",
      "name": "TherapeuticExposure",
      "layer": "DC_LEAF",
      "nodeType": "SemanticConcept",
      "conceptType": "derivation-specific",
      "desc": "What therapy the subject actually received, accounting for protocol deviations.",
      "dcVariable": "TRTA, TRTAN",
      "parentConcept": "TREATMENT_DC",
      "source": "ADaMIG v1.3",
      "props": []
    },
    {
      "id": "THERAPY_EPOCH",
      "name": "TherapyEpoch",
      "layer": "DC_LEAF",
      "nodeType": "SemanticConcept",
      "conceptType": "derivation-specific",
      "desc": "Treatment assignment within a specific study period for multi-period designs.",
      "dcVariable": "TRTxxP, TRTxxPN, TRTxxA, TRTxxAN",
      "parentConcept": "TREATMENT_DC",
      "source": "ADaMIG v1.3",
      "props": []
    },
    {
      "id": "THERAPY_GROUPING",
      "name": "TherapyGrouping",
      "layer": "DC_LEAF",
      "nodeType": "SemanticConcept",
      "conceptType": "derivation-specific",
      "desc": "Pooled or grouped treatment classification for combined analysis.",
      "dcVariable": "TRxxPGy, TRxxAGy",
      "parentConcept": "TREATMENT_DC",
      "source": "ADaMIG v1.3",
      "props": []
    },
    {
      "id": "CROSSOVER_ORDER",
      "name": "CrossoverOrder",
      "layer": "DC_LEAF",
      "nodeType": "SemanticConcept",
      "conceptType": "derivation-specific",
      "desc": "Sequence of treatments in crossover designs.",
      "dcVariable": "TRTSEQP, TRTSEQA",
      "parentConcept": "TREATMENT_DC",
      "source": "ADaMIG v1.3",
      "props": []
    },
    {
      "id": "DOSING_CONTEXT",
      "name": "DosingContext",
      "layer": "DC_LEAF",
      "nodeType": "SemanticConcept",
      "conceptType": "derivation-specific",
      "desc": "Dose magnitude and cumulative exposure information at the record level.",
      "dcVariable": "DOSEON, DOSCUMA, DOSEU",
      "parentConcept": "TREATMENT_DC",
      "source": "ADaMIG v1.3",
      "props": []
    },

    { "_comment": "=== PHASE 4C: TIMING LEAF CONCEPTS ===" },
    {
      "id": "TEMPORAL_MILESTONE",
      "name": "TemporalMilestone",
      "layer": "DC_LEAF",
      "nodeType": "SemanticConcept",
      "conceptType": "derivation-specific",
      "desc": "Key timepoints in the analysis such as analysis date, start date, or end date.",
      "dcVariable": "ADT, ASTDT, AENDT",
      "parentConcept": "TIMING_DC",
      "source": "ADaMIG v1.3",
      "props": []
    },
    {
      "id": "PRECISE_MOMENT",
      "name": "PreciseMoment",
      "layer": "DC_LEAF",
      "nodeType": "SemanticConcept",
      "conceptType": "derivation-specific",
      "desc": "Exact datetime for time-sensitive analyses requiring more precision than date alone.",
      "dcVariable": "ADTM, ASTDTM, AENDTM",
      "parentConcept": "TIMING_DC",
      "source": "ADaMIG v1.3",
      "props": []
    },
    {
      "id": "DATA_COMPLETENESS",
      "name": "DataCompleteness",
      "layer": "DC_LEAF",
      "nodeType": "SemanticConcept",
      "conceptType": "derivation-specific",
      "desc": "Indicator of missing or imputed temporal information for data quality assessment.",
      "dcVariable": "ADTF, ATMF, ASTDTF, AENDTF",
      "parentConcept": "TIMING_DC",
      "source": "ADaMIG v1.3",
      "props": []
    },
    {
      "id": "ELAPSED_INTERVAL",
      "name": "ElapsedInterval",
      "layer": "DC_LEAF",
      "nodeType": "SemanticConcept",
      "conceptType": "derivation-specific",
      "desc": "Duration or time interval between temporal anchors.",
      "dcVariable": "ADURN, ADURU",
      "parentConcept": "TIMING_DC",
      "source": "ADaMIG v1.3",
      "props": []
    },
    {
      "id": "STUDY_EPOCH",
      "name": "StudyEpoch",
      "layer": "DC_LEAF",
      "nodeType": "SemanticConcept",
      "conceptType": "derivation-specific",
      "desc": "Classification into protocol-defined time segments or periods.",
      "dcVariable": "APERIOD, APERIODC",
      "parentConcept": "TIMING_DC",
      "source": "ADaMIG v1.3",
      "props": []
    },

    { "_comment": "=== PHASE 4D: RANGE BASELINE LEAF CONCEPTS ===" },
    {
      "id": "REFERENCE_SEVERITY",
      "name": "ReferenceSeverity",
      "layer": "DC_LEAF",
      "nodeType": "SemanticConcept",
      "conceptType": "derivation-specific",
      "desc": "Toxicity or severity grade at the reference timepoint (baseline).",
      "dcVariable": "BTOXGR",
      "parentConcept": "RANGE_DC",
      "source": "ADaMIG v1.3",
      "props": []
    },
    {
      "id": "REFERENCE_NORMALITY",
      "name": "ReferenceNormality",
      "layer": "DC_LEAF",
      "nodeType": "SemanticConcept",
      "conceptType": "derivation-specific",
      "desc": "Normal range classification at the reference timepoint (baseline).",
      "dcVariable": "BNRIND",
      "parentConcept": "RANGE_DC",
      "source": "ADaMIG v1.3",
      "props": []
    },
    {
      "id": "CUSTOM_THRESHOLD",
      "name": "CustomThreshold",
      "layer": "DC_LEAF",
      "nodeType": "SemanticConcept",
      "conceptType": "derivation-specific",
      "desc": "Analysis-specific boundary values for custom range classifications.",
      "dcVariable": "AyLO, AyHI",
      "parentConcept": "RANGE_DC",
      "source": "ADaMIG v1.3",
      "props": []
    },

    { "_comment": "=== PHASE 4E: TTE LEAF CONCEPTS ===" },
    {
      "id": "RISK_ONSET_MOMENT",
      "name": "RiskOnsetMoment",
      "layer": "DC_LEAF",
      "nodeType": "SemanticConcept",
      "conceptType": "derivation-specific",
      "desc": "Precise moment when subject became at risk for the time-to-event analysis.",
      "dcVariable": "STARTDTM",
      "parentConcept": "TTE",
      "source": "ADaM BDS for TTE v1.0",
      "props": []
    },
    {
      "id": "ORIGIN_CERTAINTY",
      "name": "OriginCertainty",
      "layer": "DC_LEAF",
      "nodeType": "SemanticConcept",
      "conceptType": "derivation-specific",
      "desc": "Confidence in the risk onset timing - indicates whether origin date/time was imputed.",
      "dcVariable": "STARTDTF, STARTTMF",
      "parentConcept": "TTE",
      "source": "ADaM BDS for TTE v1.0",
      "props": []
    },
    {
      "id": "CENSORING_RATIONALE",
      "name": "CensoringRationale",
      "layer": "DC_LEAF",
      "nodeType": "SemanticConcept",
      "conceptType": "derivation-specific",
      "desc": "Explanation for why the observation was censored rather than experiencing the event.",
      "dcVariable": "CNSDTDSC",
      "parentConcept": "TTE",
      "source": "ADaM BDS for TTE v1.0",
      "props": []
    },
    {
      "id": "EVENT_DESC",
      "name": "EventDescription",
      "layer": "DC_LEAF",
      "nodeType": "SemanticConcept",
      "conceptType": "derivation-specific",
      "desc": "Description of the event of interest or the circumstance that warranted censoring.",
      "dcVariable": "EVNTDESC",
      "parentConcept": "TTE",
      "source": "ADaM BDS for TTE v1.0",
      "props": []
    },

    { "_comment": "=== PHASE 4F: POPULATION LEAF CONCEPTS ===" },
    {
      "id": "EFFICACY_ELIGIBILITY",
      "name": "EfficacyEligibility",
      "layer": "DC_LEAF",
      "nodeType": "SemanticConcept",
      "conceptType": "derivation-specific",
      "desc": "Subject qualifies for efficacy analyses (Full Analysis Set).",
      "dcVariable": "FASFL, FASFN",
      "parentConcept": "POPULATION",
      "source": "ADaMIG v1.3",
      "props": []
    },
    {
      "id": "SAFETY_ELIGIBILITY",
      "name": "SafetyEligibility",
      "layer": "DC_LEAF",
      "nodeType": "SemanticConcept",
      "conceptType": "derivation-specific",
      "desc": "Subject qualifies for safety analyses (Safety Population).",
      "dcVariable": "SAFFL, SAFFN",
      "parentConcept": "POPULATION",
      "source": "ADaMIG v1.3",
      "props": []
    },
    {
      "id": "TREATMENT_INTENTION",
      "name": "TreatmentIntention",
      "layer": "DC_LEAF",
      "nodeType": "SemanticConcept",
      "conceptType": "derivation-specific",
      "desc": "Subject assigned with intention to treat (ITT Population).",
      "dcVariable": "ITTFL, ITTFN",
      "parentConcept": "POPULATION",
      "source": "ADaMIG v1.3",
      "props": []
    },
    {
      "id": "PROTOCOL_ADHERENCE",
      "name": "ProtocolAdherence",
      "layer": "DC_LEAF",
      "nodeType": "SemanticConcept",
      "conceptType": "derivation-specific",
      "desc": "Subject completed per protocol requirements (Per-Protocol Population).",
      "dcVariable": "PPROTFL",
      "parentConcept": "POPULATION",
      "source": "ADaMIG v1.3",
      "props": []
    },
    {
      "id": "STUDY_COMPLETION",
      "name": "StudyCompletion",
      "layer": "DC_LEAF",
      "nodeType": "SemanticConcept",
      "conceptType": "derivation-specific",
      "desc": "Subject completed the study (Completers Population).",
      "dcVariable": "COMPLFL",
      "parentConcept": "POPULATION",
      "source": "ADaMIG v1.3",
      "props": []
    },
    {
      "id": "RANDOMIZATION_STATUS",
      "name": "RandomizationStatus",
      "layer": "DC_LEAF",
      "nodeType": "SemanticConcept",
      "conceptType": "derivation-specific",
      "desc": "Subject was randomized into the study.",
      "dcVariable": "RANDFL",
      "parentConcept": "POPULATION",
      "source": "ADaMIG v1.3",
      "props": []
    },
    {
      "id": "ENROLLMENT_STATUS",
      "name": "EnrollmentStatus",
      "layer": "DC_LEAF",
      "nodeType": "SemanticConcept",
      "conceptType": "derivation-specific",
      "desc": "Subject was enrolled into the study.",
      "dcVariable": "ENRLFL",
      "parentConcept": "POPULATION",
      "source": "ADaMIG v1.3",
      "props": []
    },

    { "_comment": "=== PHASE 4G: OCCURRENCE LEAF CONCEPTS ===" },
    {
      "id": "EVENT_PRIMACY",
      "name": "EventPrimacy",
      "layer": "DC_LEAF",
      "nodeType": "SemanticConcept",
      "conceptType": "derivation-specific",
      "desc": "Whether this is the first occurrence of an event type (for subject, PT, SOC, etc.).",
      "dcVariable": "AOCCFL, AOCCPFL, AOCCSFL, AOCCIFL, AOCCPIFL, AOCCSIFL",
      "parentConcept": "OCCURRENCE",
      "source": "ADaM OCCDS v1.1",
      "props": []
    },
    {
      "id": "SEVERITY_AGGREGATION",
      "name": "SeverityAggregation",
      "layer": "DC_LEAF",
      "nodeType": "SemanticConcept",
      "conceptType": "derivation-specific",
      "desc": "Grouped severity classification for summary analyses.",
      "dcVariable": "SEVGRy, SEVGRyN",
      "parentConcept": "OCCURRENCE",
      "source": "ADaM OCCDS v1.1",
      "props": []
    },
    {
      "id": "CAUSALITY_AGGREGATION",
      "name": "CausalityAggregation",
      "layer": "DC_LEAF",
      "nodeType": "SemanticConcept",
      "conceptType": "derivation-specific",
      "desc": "Grouped causality classification for relationship analyses.",
      "dcVariable": "RELGRy, RELGRyN",
      "parentConcept": "OCCURRENCE",
      "source": "ADaM OCCDS v1.1",
      "props": []
    },
    {
      "id": "TOXICITY_AGGREGATION",
      "name": "ToxicityAggregation",
      "layer": "DC_LEAF",
      "nodeType": "SemanticConcept",
      "conceptType": "derivation-specific",
      "desc": "Grouped toxicity grade classification for grading analyses.",
      "dcVariable": "TOXGGRy, TOXGGRyN",
      "parentConcept": "OCCURRENCE",
      "source": "ADaM OCCDS v1.1",
      "props": []
    },
    {
      "id": "MEDICAL_QUERY",
      "name": "MedicalQuery",
      "layer": "DC_LEAF",
      "nodeType": "SemanticConcept",
      "conceptType": "derivation-specific",
      "desc": "Standardized or custom query classification (SMQ or Custom Query).",
      "dcVariable": "SMQzzNAM, SMQzzCD, SMQzzSC, CQzzNAM",
      "parentConcept": "OCCURRENCE",
      "source": "ADaM OCCDS v1.1",
      "props": []
    },

    { "_comment": "=== PHASE 4H: SHARED OBSERVABLE PROPERTY CONCEPT ===" },
    {
      "id": "OBSERVABLE_PROPERTY",
      "name": "ObservableProperty",
      "layer": "CONCEPT",
      "nodeType": "SemanticConcept",
      "conceptType": "shared",
      "desc": "The characteristic being observed or measured - what is being tested independent of how it's collected or analyzed.",
      "coVariable": "--TEST, --TESTCD",
      "dcVariable": "PARAM, PARAMCD",
      "source": "SDTM/ADaM shared concept",
      "props": []
    },

    { "_comment": "=== PHASE 4I: CO RECORD STRUCTURE LEAF CONCEPTS ===" },
    {
      "id": "DATA_DOMAIN",
      "name": "DataDomain",
      "layer": "CO_LEAF",
      "nodeType": "SemanticConcept",
      "conceptType": "collection-specific",
      "desc": "Classification of the observation type by SDTM domain.",
      "coVariable": "DOMAIN",
      "parentConcept": "OBSERVATION",
      "source": "SDTM v2.1",
      "props": []
    },
    {
      "id": "RECORD_IDENTITY",
      "name": "RecordIdentity",
      "layer": "CO_LEAF",
      "nodeType": "SemanticConcept",
      "conceptType": "collection-specific",
      "desc": "Unique identification of a record within a data collection.",
      "coVariable": "--SEQ, --RECID",
      "parentConcept": "OBSERVATION",
      "source": "SDTM v2.1",
      "props": []
    },
    {
      "id": "CROSS_REFERENCE",
      "name": "CrossReference",
      "layer": "CO_LEAF",
      "nodeType": "SemanticConcept",
      "conceptType": "collection-specific",
      "desc": "Linkage to related observations across domains.",
      "coVariable": "--LNKID, --LNKGRP",
      "parentConcept": "OBSERVATION",
      "source": "SDTM v2.1",
      "props": []
    },
    {
      "id": "OBSERVATION_TAXONOMY",
      "name": "ObservationTaxonomy",
      "layer": "CO_LEAF",
      "nodeType": "SemanticConcept",
      "conceptType": "collection-specific",
      "desc": "Hierarchical classification of the observation by category and subcategory.",
      "coVariable": "--CAT, --SCAT",
      "parentConcept": "OBSERVATION",
      "source": "SDTM v2.1",
      "props": []
    },
    {
      "id": "COLLECTED_UNIT",
      "name": "CollectedUnit",
      "layer": "CO_LEAF",
      "nodeType": "SemanticConcept",
      "conceptType": "collection-specific",
      "desc": "Unit of measure as originally recorded before standardization.",
      "coVariable": "--ORRESU",
      "parentConcept": "RESULT",
      "source": "SDTM v2.1",
      "props": []
    }
  ],
  "links": [
    { "s": "OBSERVATION", "t": "DATUM", "type": "IS_A", "card": "specialization", "d": "Observation is a Datum (collected)" },
    { "s": "DERIVATION", "t": "DATUM", "type": "IS_A", "card": "specialization", "d": "Derivation is a Datum (computed)" },
    { "s": "INFERENCE", "t": "DATUM", "type": "IS_A", "card": "specialization", "d": "Inference is a Datum (inferred)" },
    { "s": "EVENT", "t": "OBSERVATION", "type": "IS_A", "card": "specialization", "d": "Event is an Observation" },
    { "s": "INTERVENTION", "t": "OBSERVATION", "type": "IS_A", "card": "specialization", "d": "Intervention is an Observation" },
    { "s": "FINDING", "t": "OBSERVATION", "type": "IS_A", "card": "specialization", "d": "Finding is an Observation" },
    { "s": "FINDINGABOUT", "t": "OBSERVATION", "type": "IS_A", "card": "specialization", "d": "FindingAbout is an Observation" },
    { "s": "OBSERVATION", "t": "SUBJECT", "type": "ABOUT", "card": "N:1", "d": "Observation about a Subject" },
    { "s": "OBSERVATION", "t": "STUDY", "type": "WITHIN", "card": "N:1", "d": "Observation in a Study" },
    { "s": "OBSERVATION", "t": "TOPIC", "type": "HAS_TOPIC", "card": "1:1", "d": "Core subject matter" },
    { "s": "OBSERVATION", "t": "TIMING_CO", "type": "HAS_TIMING", "card": "1:1", "d": "Temporal context" },
    { "s": "OBSERVATION", "t": "STATUS_CO", "type": "HAS_STATUS", "card": "1:1", "d": "Completion status" },
    { "s": "OBSERVATION", "t": "ANATOMY_CONCEPT", "type": "HAS_ANATOMY", "card": "0..1", "d": "Anatomical context" },
    { "s": "OBSERVATION", "t": "METHOD_CO", "type": "COLLECTED_VIA", "card": "0..1", "d": "Collection method" },
    { "s": "OBSERVATION", "t": "SUPPQUAL", "type": "HAS_SUPPLEMENT", "card": "0..N", "d": "Supplemental qualifiers" },
    { "s": "OBSERVATION", "t": "RELRECORD", "type": "LINKED_VIA", "card": "0..N", "d": "Cross-domain links" },
    { "s": "EVENT", "t": "SEVERITY", "type": "HAS_ASSESSMENT", "card": "0..1", "d": "Severity/causality" },
    { "s": "EVENT", "t": "SERIOUSNESS", "type": "HAS_SERIOUSNESS", "card": "0..1", "d": "SAE criteria" },
    { "s": "INTERVENTION", "t": "DOSE", "type": "HAS_DOSE", "card": "0..1", "d": "Dosing info" },
    { "s": "FINDING", "t": "RESULT", "type": "HAS_RESULT", "card": "1:1", "d": "Result value" },
    { "s": "FINDING", "t": "SPECIMEN_CONCEPT", "type": "HAS_SPECIMEN", "card": "0..1", "d": "Specimen" },
    { "s": "FINDING", "t": "EVALUATOR_CONCEPT", "type": "ASSESSED_BY", "card": "0..1", "d": "Evaluator" },
    { "s": "FINDINGABOUT", "t": "EVENT", "type": "ABOUT_EVENT", "card": "N:1", "d": "Finding about event" },
    { "s": "FINDINGABOUT", "t": "INTERVENTION", "type": "ABOUT_INTERVENTION", "card": "N:1", "d": "Finding about intervention" },
    { "s": "TOPIC", "t": "DICTCODING", "type": "CODED_BY", "card": "0..1", "d": "Dictionary mapping" },
    { "s": "SUBJECT", "t": "STUDY", "type": "ENROLLED_IN", "card": "N:1", "d": "Subject in study" },
    { "s": "STUDY", "t": "TRIALDESIGN", "type": "DEFINED_BY", "card": "1:1", "d": "Study has design" },
    { "s": "DEVICE", "t": "STUDY", "type": "USED_IN", "card": "N:1", "d": "Device in study" },
    { "s": "ORGANISM", "t": "STUDY", "type": "STUDIED_IN", "card": "N:1", "d": "Organism in study" },
    { "s": "OBSERVATION", "t": "DEVICE", "type": "INVOLVES", "card": "0..N", "d": "May involve device" },
    { "s": "OBSERVATION", "t": "POOL", "type": "FOR_POOL", "card": "0..1", "d": "Pool result" },
    { "s": "DERIVATION", "t": "OBSERVATION", "type": "DERIVED_FROM", "card": "N:M", "d": "Traceability to source" },
    { "s": "DERIVATION", "t": "SUBJECT", "type": "FOR_SUBJECT", "card": "N:1", "d": "For a subject" },
    { "s": "DERIVATION", "t": "DERIVED_MEASURE", "type": "HAS_MEASURE", "card": "1:1", "d": "What is derived" },
    { "s": "DERIVATION", "t": "TIMING_DC", "type": "HAS_TIMING", "card": "1:1", "d": "Derived timing" },
    { "s": "DERIVATION", "t": "FLAG_DC", "type": "CLASSIFIED_BY", "card": "1:N", "d": "Analysis flags" },
    { "s": "DERIVATION", "t": "TREATMENT_DC", "type": "IN_CONTEXT", "card": "0..1", "d": "Treatment context" },
    { "s": "DERIVATION", "t": "RANGE_DC", "type": "HAS_RANGE", "card": "0..1", "d": "Range assessment" },
    { "s": "DERIVATION", "t": "POPULATION", "type": "IN_POPULATION", "card": "1:N", "d": "Population membership" },
    { "s": "DERIVATION", "t": "OCCURRENCE", "type": "HAS_OCCURRENCE", "card": "0..1", "d": "OCCDS classification" },
    { "s": "DERIVATION", "t": "TTE", "type": "HAS_TTE", "card": "0..1", "d": "Time-to-event attributes" },
    { "s": "TIMING_DC", "t": "TIMING_CO", "type": "DERIVED_FROM", "card": "N:1", "d": "From collected timing" },
    { "s": "INFERENCE", "t": "DERIVATION", "type": "APPLIED_TO", "card": "N:M", "d": "Applied to derivations" },
    { "s": "AC_SUMSTAT", "t": "INFERENCE", "type": "IS_A", "card": "specialization", "d": "Summary stat type" },
    { "s": "AC_GLM", "t": "INFERENCE", "type": "IS_A", "card": "specialization", "d": "GLM type" },
    { "s": "AC_GLZM", "t": "INFERENCE", "type": "IS_A", "card": "specialization", "d": "GLZM type" },
    { "s": "AC_NONPAR", "t": "INFERENCE", "type": "IS_A", "card": "specialization", "d": "Non-parametric type" },
    { "s": "AC_CATEG", "t": "INFERENCE", "type": "IS_A", "card": "specialization", "d": "Categorical type" },
    { "s": "AC_REPEAT", "t": "INFERENCE", "type": "IS_A", "card": "specialization", "d": "Repeated measures type" },
    { "s": "AC_SURV", "t": "INFERENCE", "type": "IS_A", "card": "specialization", "d": "Survival type" },
    { "s": "AC_CORR", "t": "INFERENCE", "type": "IS_A", "card": "specialization", "d": "Correlation type" },
    { "s": "AC_SSIZE", "t": "INFERENCE", "type": "IS_A", "card": "specialization", "d": "Sample size type" },
    { "s": "AC_CAUSAL", "t": "INFERENCE", "type": "IS_A", "card": "specialization", "d": "Causal/ML type" },
    { "s": "INFERENCE", "t": "CROSSLANG", "type": "HAS_DIFFERENCE", "card": "1:N", "d": "Platform differences" },
    { "s": "INFERENCE", "t": "ONTOLOGY", "type": "MAPPED_TO", "card": "0..1", "d": "STATO mapping" },
    { "s": "DERIVED_MEASURE", "t": "INFERENCE", "type": "ANALYZED_BY", "card": "N:M", "d": "Analyzed by inference methods" },
    { "s": "TREATMENT_DC", "t": "TRIALDESIGN", "type": "CONTEXTUALIZES", "card": "N:1", "d": "Treatment in design" },

    { "s": "M_TTEST_1SAMP", "t": "AC_GLM", "type": "IS_A", "card": "specialization", "d": "One-sample t-test is GLM" },
    { "s": "M_TTEST_PAIRED", "t": "AC_GLM", "type": "IS_A", "card": "specialization", "d": "Paired t-test is GLM" },
    { "s": "M_TTEST_2SAMP", "t": "AC_GLM", "type": "IS_A", "card": "specialization", "d": "Two-sample t-test is GLM" },
    { "s": "M_ANOVA", "t": "AC_GLM", "type": "IS_A", "card": "specialization", "d": "ANOVA is GLM" },
    { "s": "M_ANCOVA", "t": "AC_GLM", "type": "IS_A", "card": "specialization", "d": "ANCOVA is GLM" },
    { "s": "M_MANOVA", "t": "AC_GLM", "type": "IS_A", "card": "specialization", "d": "MANOVA is GLM" },
    { "s": "M_LINREG", "t": "AC_GLM", "type": "IS_A", "card": "specialization", "d": "Linear regression is GLM" },
    { "s": "M_LOGREG", "t": "AC_GLZM", "type": "IS_A", "card": "specialization", "d": "Logistic regression is GLZM" },
    { "s": "M_POISREG", "t": "AC_GLZM", "type": "IS_A", "card": "specialization", "d": "Poisson regression is GLZM" },
    { "s": "M_NBREG", "t": "AC_GLZM", "type": "IS_A", "card": "specialization", "d": "Negative binomial is GLZM" },
    { "s": "M_WILCOX_SR", "t": "AC_NONPAR", "type": "IS_A", "card": "specialization", "d": "Wilcoxon signed-rank is non-parametric" },
    { "s": "M_MANN_WHIT", "t": "AC_NONPAR", "type": "IS_A", "card": "specialization", "d": "Mann-Whitney is non-parametric" },
    { "s": "M_KRUSKAL", "t": "AC_NONPAR", "type": "IS_A", "card": "specialization", "d": "Kruskal-Wallis is non-parametric" },
    { "s": "M_FRIEDMAN", "t": "AC_NONPAR", "type": "IS_A", "card": "specialization", "d": "Friedman is non-parametric" },
    { "s": "M_CHISQ", "t": "AC_CATEG", "type": "IS_A", "card": "specialization", "d": "Chi-square is categorical" },
    { "s": "M_FISHER", "t": "AC_CATEG", "type": "IS_A", "card": "specialization", "d": "Fisher exact is categorical" },
    { "s": "M_MCNEMAR", "t": "AC_CATEG", "type": "IS_A", "card": "specialization", "d": "McNemar is categorical" },
    { "s": "M_CMH", "t": "AC_CATEG", "type": "IS_A", "card": "specialization", "d": "CMH is categorical" },
    { "s": "M_MMRM", "t": "AC_REPEAT", "type": "IS_A", "card": "specialization", "d": "MMRM is repeated measures" },
    { "s": "M_GEE", "t": "AC_REPEAT", "type": "IS_A", "card": "specialization", "d": "GEE is repeated measures" },
    { "s": "M_KM", "t": "AC_SURV", "type": "IS_A", "card": "specialization", "d": "Kaplan-Meier is survival" },
    { "s": "M_LOGRANK", "t": "AC_SURV", "type": "IS_A", "card": "specialization", "d": "Log-rank is survival" },
    { "s": "M_COXPH", "t": "AC_SURV", "type": "IS_A", "card": "specialization", "d": "Cox PH is survival" },
    { "s": "M_PEARSON", "t": "AC_CORR", "type": "IS_A", "card": "specialization", "d": "Pearson is correlation" },
    { "s": "M_SPEARMAN", "t": "AC_CORR", "type": "IS_A", "card": "specialization", "d": "Spearman is correlation" },
    { "s": "M_KENDALL", "t": "AC_CORR", "type": "IS_A", "card": "specialization", "d": "Kendall is correlation" },
    { "s": "M_SSIZE_SUP", "t": "AC_SSIZE", "type": "IS_A", "card": "specialization", "d": "Superiority sample size" },
    { "s": "M_SSIZE_EQUIV", "t": "AC_SSIZE", "type": "IS_A", "card": "specialization", "d": "Equivalence sample size" },
    { "s": "M_SSIZE_NI", "t": "AC_SSIZE", "type": "IS_A", "card": "specialization", "d": "Non-inferiority sample size" },
    { "s": "M_PSM", "t": "AC_CAUSAL", "type": "IS_A", "card": "specialization", "d": "PSM is causal" },
    { "s": "M_ROUNDING", "t": "AC_SUMSTAT", "type": "IS_A", "card": "specialization", "d": "Rounding is summary stat" },
    { "s": "M_QUANTILE", "t": "AC_SUMSTAT", "type": "IS_A", "card": "specialization", "d": "Quantile is summary stat" },
    { "s": "M_SKEWNESS", "t": "AC_SUMSTAT", "type": "IS_A", "card": "specialization", "d": "Skewness is summary stat" },
    { "s": "M_KURTOSIS", "t": "AC_SUMSTAT", "type": "IS_A", "card": "specialization", "d": "Kurtosis is summary stat" },

    { "s": "M_TTEST_1SAMP", "t": "OUT_PVALUE", "type": "PRODUCES", "card": "1:1", "d": "Produces p-value" },
    { "s": "M_TTEST_1SAMP", "t": "OUT_CI", "type": "PRODUCES", "card": "1:1", "d": "Produces CI" },
    { "s": "M_TTEST_1SAMP", "t": "OUT_TSTAT", "type": "PRODUCES", "card": "1:1", "d": "Produces t-statistic" },
    { "s": "M_TTEST_1SAMP", "t": "OUT_EFFECT", "type": "PRODUCES", "card": "1:1", "d": "Produces effect estimate" },
    { "s": "M_TTEST_PAIRED", "t": "OUT_PVALUE", "type": "PRODUCES", "card": "1:1", "d": "Produces p-value" },
    { "s": "M_TTEST_PAIRED", "t": "OUT_CI", "type": "PRODUCES", "card": "1:1", "d": "Produces CI" },
    { "s": "M_TTEST_PAIRED", "t": "OUT_TSTAT", "type": "PRODUCES", "card": "1:1", "d": "Produces t-statistic" },
    { "s": "M_TTEST_PAIRED", "t": "OUT_EFFECT", "type": "PRODUCES", "card": "1:1", "d": "Produces effect estimate" },
    { "s": "M_TTEST_2SAMP", "t": "OUT_PVALUE", "type": "PRODUCES", "card": "1:1", "d": "Produces p-value" },
    { "s": "M_TTEST_2SAMP", "t": "OUT_CI", "type": "PRODUCES", "card": "1:1", "d": "Produces CI" },
    { "s": "M_TTEST_2SAMP", "t": "OUT_TSTAT", "type": "PRODUCES", "card": "1:1", "d": "Produces t-statistic" },
    { "s": "M_TTEST_2SAMP", "t": "OUT_EFFECT", "type": "PRODUCES", "card": "1:1", "d": "Produces effect estimate" },
    { "s": "M_ANOVA", "t": "OUT_PVALUE", "type": "PRODUCES", "card": "1:1", "d": "Produces p-value" },
    { "s": "M_ANOVA", "t": "OUT_FSTAT", "type": "PRODUCES", "card": "1:1", "d": "Produces F-statistic" },
    { "s": "M_ANCOVA", "t": "OUT_PVALUE", "type": "PRODUCES", "card": "1:1", "d": "Produces p-value" },
    { "s": "M_ANCOVA", "t": "OUT_FSTAT", "type": "PRODUCES", "card": "1:1", "d": "Produces F-statistic" },
    { "s": "M_ANCOVA", "t": "OUT_LSMEAN", "type": "PRODUCES", "card": "1:N", "d": "Produces LS means" },
    { "s": "M_ANCOVA", "t": "OUT_EFFECT", "type": "PRODUCES", "card": "1:1", "d": "Produces effect estimate" },
    { "s": "M_LINREG", "t": "OUT_PVALUE", "type": "PRODUCES", "card": "1:N", "d": "Produces p-values" },
    { "s": "M_LINREG", "t": "OUT_CI", "type": "PRODUCES", "card": "1:N", "d": "Produces CIs" },
    { "s": "M_LINREG", "t": "OUT_EFFECT", "type": "PRODUCES", "card": "1:N", "d": "Produces coefficients" },
    { "s": "M_LOGREG", "t": "OUT_PVALUE", "type": "PRODUCES", "card": "1:N", "d": "Produces p-values" },
    { "s": "M_LOGREG", "t": "OUT_OR", "type": "PRODUCES", "card": "1:N", "d": "Produces odds ratios" },
    { "s": "M_LOGREG", "t": "OUT_CI", "type": "PRODUCES", "card": "1:N", "d": "Produces CIs" },
    { "s": "M_WILCOX_SR", "t": "OUT_PVALUE", "type": "PRODUCES", "card": "1:1", "d": "Produces p-value" },
    { "s": "M_MANN_WHIT", "t": "OUT_PVALUE", "type": "PRODUCES", "card": "1:1", "d": "Produces p-value" },
    { "s": "M_KRUSKAL", "t": "OUT_PVALUE", "type": "PRODUCES", "card": "1:1", "d": "Produces p-value" },
    { "s": "M_KRUSKAL", "t": "OUT_CHISQ", "type": "PRODUCES", "card": "1:1", "d": "Produces chi-square" },
    { "s": "M_FRIEDMAN", "t": "OUT_PVALUE", "type": "PRODUCES", "card": "1:1", "d": "Produces p-value" },
    { "s": "M_FRIEDMAN", "t": "OUT_CHISQ", "type": "PRODUCES", "card": "1:1", "d": "Produces chi-square" },
    { "s": "M_CHISQ", "t": "OUT_PVALUE", "type": "PRODUCES", "card": "1:1", "d": "Produces p-value" },
    { "s": "M_CHISQ", "t": "OUT_CHISQ", "type": "PRODUCES", "card": "1:1", "d": "Produces chi-square" },
    { "s": "M_FISHER", "t": "OUT_PVALUE", "type": "PRODUCES", "card": "1:1", "d": "Produces p-value" },
    { "s": "M_FISHER", "t": "OUT_OR", "type": "PRODUCES", "card": "1:1", "d": "Produces odds ratio" },
    { "s": "M_MCNEMAR", "t": "OUT_PVALUE", "type": "PRODUCES", "card": "1:1", "d": "Produces p-value" },
    { "s": "M_MCNEMAR", "t": "OUT_CHISQ", "type": "PRODUCES", "card": "1:1", "d": "Produces chi-square" },
    { "s": "M_CMH", "t": "OUT_PVALUE", "type": "PRODUCES", "card": "1:1", "d": "Produces p-value" },
    { "s": "M_CMH", "t": "OUT_CHISQ", "type": "PRODUCES", "card": "1:1", "d": "Produces chi-square" },
    { "s": "M_CMH", "t": "OUT_OR", "type": "PRODUCES", "card": "1:1", "d": "Produces common OR" },
    { "s": "M_MMRM", "t": "OUT_PVALUE", "type": "PRODUCES", "card": "1:N", "d": "Produces p-values" },
    { "s": "M_MMRM", "t": "OUT_LSMEAN", "type": "PRODUCES", "card": "1:N", "d": "Produces LS means" },
    { "s": "M_MMRM", "t": "OUT_CI", "type": "PRODUCES", "card": "1:N", "d": "Produces CIs" },
    { "s": "M_MMRM", "t": "OUT_EFFECT", "type": "PRODUCES", "card": "1:N", "d": "Produces effect estimates" },
    { "s": "M_GEE", "t": "OUT_PVALUE", "type": "PRODUCES", "card": "1:N", "d": "Produces p-values" },
    { "s": "M_GEE", "t": "OUT_CI", "type": "PRODUCES", "card": "1:N", "d": "Produces CIs" },
    { "s": "M_KM", "t": "OUT_SURVCURVE", "type": "PRODUCES", "card": "1:N", "d": "Produces survival curves" },
    { "s": "M_KM", "t": "OUT_CI", "type": "PRODUCES", "card": "1:N", "d": "Produces CIs" },
    { "s": "M_LOGRANK", "t": "OUT_PVALUE", "type": "PRODUCES", "card": "1:1", "d": "Produces p-value" },
    { "s": "M_LOGRANK", "t": "OUT_CHISQ", "type": "PRODUCES", "card": "1:1", "d": "Produces chi-square" },
    { "s": "M_COXPH", "t": "OUT_PVALUE", "type": "PRODUCES", "card": "1:N", "d": "Produces p-values" },
    { "s": "M_COXPH", "t": "OUT_HR", "type": "PRODUCES", "card": "1:N", "d": "Produces hazard ratios" },
    { "s": "M_COXPH", "t": "OUT_CI", "type": "PRODUCES", "card": "1:N", "d": "Produces CIs" },
    { "s": "M_PEARSON", "t": "OUT_PVALUE", "type": "PRODUCES", "card": "1:1", "d": "Produces p-value" },
    { "s": "M_PEARSON", "t": "OUT_CORR", "type": "PRODUCES", "card": "1:1", "d": "Produces correlation" },
    { "s": "M_PEARSON", "t": "OUT_CI", "type": "PRODUCES", "card": "1:1", "d": "Produces CI" },
    { "s": "M_SPEARMAN", "t": "OUT_PVALUE", "type": "PRODUCES", "card": "1:1", "d": "Produces p-value" },
    { "s": "M_SPEARMAN", "t": "OUT_CORR", "type": "PRODUCES", "card": "1:1", "d": "Produces correlation" },
    { "s": "M_KENDALL", "t": "OUT_PVALUE", "type": "PRODUCES", "card": "1:1", "d": "Produces p-value" },
    { "s": "M_KENDALL", "t": "OUT_CORR", "type": "PRODUCES", "card": "1:1", "d": "Produces correlation" },
    { "s": "M_SSIZE_SUP", "t": "OUT_SAMPLESIZE", "type": "PRODUCES", "card": "1:1", "d": "Produces sample size" },
    { "s": "M_SSIZE_EQUIV", "t": "OUT_SAMPLESIZE", "type": "PRODUCES", "card": "1:1", "d": "Produces sample size" },
    { "s": "M_SSIZE_NI", "t": "OUT_SAMPLESIZE", "type": "PRODUCES", "card": "1:1", "d": "Produces sample size" },

    { "_comment": "=== SHARED SEMANTIC CONCEPT RELATIONSHIPS (CO layer to CONCEPT layer) ===" },
    { "s": "RESULT", "t": "QUANT_RESULT", "type": "HAS_QUANTITATIVE", "card": "1:1", "d": "CO result has quantitative value" },
    { "s": "RESULT", "t": "QUAL_RESULT", "type": "HAS_QUALITATIVE", "card": "1:1", "d": "CO result has qualitative value" },
    { "s": "RESULT", "t": "MEASURE_UNIT", "type": "HAS_UNIT", "card": "0..1", "d": "CO result has unit" },
    { "s": "RESULT", "t": "REF_RANGE", "type": "HAS_REFERENCE_RANGE", "card": "0..1", "d": "CO result has reference range" },
    { "s": "RESULT", "t": "RANGE_CLASS", "type": "HAS_CLASSIFICATION", "card": "0..1", "d": "CO result has range classification" },
    { "s": "RESULT", "t": "TOX_GRADE", "type": "HAS_TOXICITY_GRADE", "card": "0..1", "d": "CO result has toxicity grade" },
    { "s": "RESULT", "t": "SEVERITY_CONCEPT", "type": "HAS_SEVERITY", "card": "0..1", "d": "CO result has severity" },
    { "s": "RESULT", "t": "CAUSALITY_CONCEPT", "type": "HAS_CAUSALITY", "card": "0..1", "d": "CO result has causality assessment" },
    { "s": "TIMING_CO", "t": "TEMPORAL_POINT", "type": "HAS_TEMPORAL_ANCHOR", "card": "1:1", "d": "CO timing has temporal point" },
    { "s": "TIMING_CO", "t": "RELATIVE_TIME", "type": "HAS_RELATIVE_TIME", "card": "0..1", "d": "CO timing has relative time" },
    { "s": "TIMING_CO", "t": "VISIT_CONTEXT", "type": "HAS_VISIT", "card": "0..1", "d": "CO timing has visit context" },
    { "s": "TIMING_CO", "t": "STUDY_PHASE", "type": "HAS_PHASE", "card": "0..1", "d": "CO timing has study phase" },
    { "s": "RESULT", "t": "BASELINE_IND", "type": "HAS_BASELINE_FLAG", "card": "0..1", "d": "CO result has baseline indicator" },
    { "s": "RESULT", "t": "DERIVATION_IND", "type": "HAS_DERIVATION_FLAG", "card": "0..1", "d": "CO result has derivation indicator (--DRVFL)" },

    { "_comment": "=== FLAG CONCEPT IS_A HIERARCHY ===" },
    { "s": "BASELINE_IND", "t": "INDICATOR_FLAG", "type": "IS_A", "card": "specialization", "d": "Baseline indicator is a flag type" },
    { "s": "DERIVATION_IND", "t": "INDICATOR_FLAG", "type": "IS_A", "card": "specialization", "d": "Derivation indicator is a flag type" },
    { "s": "TREATMENT_PHASE_IND", "t": "INDICATOR_FLAG", "type": "IS_A", "card": "specialization", "d": "Treatment phase indicator is a flag type" },
    { "s": "TREATMENT_PERIOD_IND", "t": "INDICATOR_FLAG", "type": "IS_A", "card": "specialization", "d": "Treatment period indicator is a flag type" },
    { "s": "ANALYSIS_SELECT_FLAG", "t": "INDICATOR_FLAG", "type": "IS_A", "card": "specialization", "d": "Analysis selection flag is a flag type" },

    { "_comment": "=== SHARED SEMANTIC CONCEPT RELATIONSHIPS (DC layer to CONCEPT layer) ===" },
    { "s": "DERIVED_MEASURE", "t": "QUANT_RESULT", "type": "HAS_QUANTITATIVE", "card": "1:1", "d": "DC measure has quantitative value" },
    { "s": "DERIVED_MEASURE", "t": "QUAL_RESULT", "type": "HAS_QUALITATIVE", "card": "0..1", "d": "DC measure has qualitative value" },
    { "s": "DERIVED_MEASURE", "t": "MEASURE_UNIT", "type": "HAS_UNIT", "card": "0..1", "d": "DC measure has unit (embedded in PARAM)" },
    { "s": "DERIVATION", "t": "DERIVATION_IND", "type": "HAS_DERIVATION_FLAG", "card": "0..1", "d": "DC derivation has derivation indicator (DTYPE)" },
    { "s": "RANGE_DC", "t": "REF_RANGE", "type": "HAS_REFERENCE_RANGE", "card": "0..1", "d": "DC range has reference range" },
    { "s": "RANGE_DC", "t": "RANGE_CLASS", "type": "HAS_CLASSIFICATION", "card": "0..1", "d": "DC range has classification" },
    { "s": "RANGE_DC", "t": "TOX_GRADE", "type": "HAS_TOXICITY_GRADE", "card": "0..1", "d": "DC range has toxicity grade" },
    { "s": "DERIVATION", "t": "SEVERITY_CONCEPT", "type": "HAS_SEVERITY", "card": "0..1", "d": "DC derivation has severity" },
    { "s": "DERIVATION", "t": "CAUSALITY_CONCEPT", "type": "HAS_CAUSALITY", "card": "0..1", "d": "DC derivation has causality" },
    { "s": "TIMING_DC", "t": "TEMPORAL_POINT", "type": "HAS_TEMPORAL_ANCHOR", "card": "1:1", "d": "DC timing has temporal point" },
    { "s": "TIMING_DC", "t": "RELATIVE_TIME", "type": "HAS_RELATIVE_TIME", "card": "0..1", "d": "DC timing has relative time" },
    { "s": "TIMING_DC", "t": "VISIT_CONTEXT", "type": "HAS_VISIT", "card": "0..1", "d": "DC timing has visit context" },
    { "s": "TIMING_DC", "t": "STUDY_PHASE", "type": "HAS_PHASE", "card": "0..1", "d": "DC timing has study phase" },
    { "s": "FLAG_DC", "t": "BASELINE_IND", "type": "HAS_BASELINE_FLAG", "card": "0..1", "d": "DC flags include baseline indicator" },
    { "s": "FLAG_DC", "t": "TREATMENT_PHASE_IND", "type": "HAS_PHASE_FLAG", "card": "0..1", "d": "DC flags include treatment phase indicator" },
    { "s": "FLAG_DC", "t": "TREATMENT_PERIOD_IND", "type": "HAS_PERIOD_FLAG", "card": "0..1", "d": "DC flags include treatment period indicator" },
    { "s": "FLAG_DC", "t": "ANALYSIS_SELECT_FLAG", "type": "HAS_ANALYSIS_FLAG", "card": "0..N", "d": "DC flags include analysis selection flags" },

    { "_comment": "=== DC-ONLY LEAF CONCEPT RELATIONSHIPS ===" },
    { "s": "DERIVED_MEASURE", "t": "BASELINE_VAL", "type": "HAS_BASELINE_VALUE", "card": "0..1", "d": "Measure has baseline value" },
    { "s": "DERIVED_MEASURE", "t": "CHANGE", "type": "HAS_CHANGE", "card": "0..1", "d": "Measure has change from baseline" },
    { "s": "DERIVED_MEASURE", "t": "PCT_CHANGE", "type": "HAS_PERCENT_CHANGE", "card": "0..1", "d": "Measure has percent change" },
    { "s": "DERIVED_MEASURE", "t": "RATIO", "type": "HAS_RATIO", "card": "0..1", "d": "Measure has ratio to baseline" },
    { "s": "DERIVED_MEASURE", "t": "SHIFT", "type": "HAS_SHIFT", "card": "0..1", "d": "Measure has shift category" },
    { "s": "DERIVED_MEASURE", "t": "DERIV_METHOD", "type": "DERIVED_BY", "card": "0..1", "d": "Measure has derivation method" },
    { "s": "DERIVED_MEASURE", "t": "CRITERION", "type": "EVALUATED_BY", "card": "0..N", "d": "Measure evaluated by criteria" },
    { "s": "TTE", "t": "CENSOR", "type": "HAS_CENSOR_STATUS", "card": "1:1", "d": "TTE has censor status" },
    { "s": "TTE", "t": "TIME_ORIGIN", "type": "ANCHORED_AT", "card": "1:1", "d": "TTE anchored at origin" },
    { "s": "TTE", "t": "EVENT_DESC", "type": "HAS_EVENT_DESCRIPTION", "card": "1:1", "d": "TTE has event description" },
    { "s": "TIMING_DC", "t": "WINDOW", "type": "WINDOWED_BY", "card": "0..1", "d": "DC timing has analysis window" },

    { "_comment": "=== CO PARENT TO OBSERVATION RELATIONSHIPS ===" },
    { "s": "OBSERVATION", "t": "ANATOMY", "type": "HAS_ANATOMY", "card": "0..1", "d": "Observation may have anatomical context" },
    { "s": "OBSERVATION", "t": "SPECIMEN", "type": "HAS_SPECIMEN", "card": "0..1", "d": "Observation may be from specimen" },
    { "s": "OBSERVATION", "t": "EVALUATOR", "type": "HAS_EVALUATOR", "card": "0..1", "d": "Observation may have evaluator" },

    { "_comment": "=== CO PARENT TO CO_LEAF RELATIONSHIPS ===" },
    { "s": "ANATOMY", "t": "ANATOMY_CONCEPT", "type": "SPECIALIZES", "card": "1:1", "d": "AnatomicalSite specializes AnatomicalContext" },
    { "s": "SPECIMEN", "t": "SPECIMEN_CONCEPT", "type": "SPECIALIZES", "card": "1:1", "d": "BiologicalSpecimen specializes Specimen" },
    { "s": "EVALUATOR", "t": "EVALUATOR_CONCEPT", "type": "SPECIALIZES", "card": "1:1", "d": "Evaluator leaf specializes Evaluator parent" },

    { "_comment": "=== CO-ONLY LEAF CONCEPT RELATIONSHIPS ===" },
    { "s": "RESULT", "t": "ORIG_RESULT", "type": "HAS_ORIGINAL", "card": "1:1", "d": "Result has original value" },
    { "s": "OBSERVATION", "t": "COLLECTION_METHOD", "type": "COLLECTED_BY", "card": "0..1", "d": "Observation has collection method" },
    { "s": "OBSERVATION", "t": "COMPLETION", "type": "HAS_STATUS", "card": "0..1", "d": "Observation has completion status" },
    { "s": "OBSERVATION", "t": "DICTIONARY", "type": "CODED_BY", "card": "0..1", "d": "Observation coded by dictionary" },

    { "_comment": "=== PHASE 4B: TREATMENT LEAF RELATIONSHIPS ===" },
    { "s": "TREATMENT_DC", "t": "THERAPEUTIC_INTENT", "type": "HAS_INTENT", "card": "1:1", "d": "Treatment context includes therapeutic intent" },
    { "s": "TREATMENT_DC", "t": "THERAPEUTIC_EXPOSURE", "type": "HAS_EXPOSURE", "card": "0..1", "d": "Treatment context includes actual exposure" },
    { "s": "TREATMENT_DC", "t": "THERAPY_EPOCH", "type": "HAS_EPOCH", "card": "0..N", "d": "Treatment context includes period-specific assignment" },
    { "s": "TREATMENT_DC", "t": "THERAPY_GROUPING", "type": "HAS_GROUPING", "card": "0..N", "d": "Treatment context includes pooled groups" },
    { "s": "TREATMENT_DC", "t": "CROSSOVER_ORDER", "type": "HAS_SEQUENCE", "card": "0..1", "d": "Treatment context includes crossover sequence" },
    { "s": "TREATMENT_DC", "t": "DOSING_CONTEXT", "type": "HAS_DOSING", "card": "0..1", "d": "Treatment context includes dose information" },

    { "_comment": "=== PHASE 4C: TIMING LEAF RELATIONSHIPS ===" },
    { "s": "TIMING_DC", "t": "TEMPORAL_MILESTONE", "type": "HAS_MILESTONE", "card": "1:1", "d": "Timing includes key temporal milestones" },
    { "s": "TIMING_DC", "t": "PRECISE_MOMENT", "type": "HAS_PRECISE_TIME", "card": "0..1", "d": "Timing includes precise datetime" },
    { "s": "TIMING_DC", "t": "DATA_COMPLETENESS", "type": "HAS_COMPLETENESS", "card": "0..1", "d": "Timing includes data quality indicator" },
    { "s": "TIMING_DC", "t": "ELAPSED_INTERVAL", "type": "HAS_INTERVAL", "card": "0..1", "d": "Timing includes elapsed duration" },
    { "s": "TIMING_DC", "t": "STUDY_EPOCH", "type": "HAS_STUDY_EPOCH", "card": "0..1", "d": "Timing includes study period classification" },

    { "_comment": "=== PHASE 4D: RANGE BASELINE LEAF RELATIONSHIPS ===" },
    { "s": "RANGE_DC", "t": "REFERENCE_SEVERITY", "type": "HAS_REF_SEVERITY", "card": "0..1", "d": "Range includes reference severity" },
    { "s": "RANGE_DC", "t": "REFERENCE_NORMALITY", "type": "HAS_REF_NORMALITY", "card": "0..1", "d": "Range includes reference normality" },
    { "s": "RANGE_DC", "t": "CUSTOM_THRESHOLD", "type": "HAS_THRESHOLD", "card": "0..N", "d": "Range includes custom thresholds" },

    { "_comment": "=== PHASE 4E: TTE LEAF RELATIONSHIPS ===" },
    { "s": "TTE", "t": "RISK_ONSET_MOMENT", "type": "HAS_ONSET_MOMENT", "card": "0..1", "d": "TTE has precise risk onset datetime" },
    { "s": "TTE", "t": "ORIGIN_CERTAINTY", "type": "HAS_CERTAINTY", "card": "0..1", "d": "TTE has origin data quality indicator" },
    { "s": "TTE", "t": "CENSORING_RATIONALE", "type": "HAS_RATIONALE", "card": "0..1", "d": "TTE has censoring explanation" },

    { "_comment": "=== PHASE 4F: POPULATION LEAF RELATIONSHIPS ===" },
    { "s": "POPULATION", "t": "EFFICACY_ELIGIBILITY", "type": "HAS_EFFICACY_FLAG", "card": "0..1", "d": "Population includes efficacy eligibility" },
    { "s": "POPULATION", "t": "SAFETY_ELIGIBILITY", "type": "HAS_SAFETY_FLAG", "card": "0..1", "d": "Population includes safety eligibility" },
    { "s": "POPULATION", "t": "TREATMENT_INTENTION", "type": "HAS_ITT_FLAG", "card": "0..1", "d": "Population includes ITT eligibility" },
    { "s": "POPULATION", "t": "PROTOCOL_ADHERENCE", "type": "HAS_PP_FLAG", "card": "0..1", "d": "Population includes per-protocol eligibility" },
    { "s": "POPULATION", "t": "STUDY_COMPLETION", "type": "HAS_COMPLETER_FLAG", "card": "0..1", "d": "Population includes completer status" },
    { "s": "POPULATION", "t": "RANDOMIZATION_STATUS", "type": "HAS_RANDOMIZATION_FLAG", "card": "0..1", "d": "Population includes randomization status" },
    { "s": "POPULATION", "t": "ENROLLMENT_STATUS", "type": "HAS_ENROLLMENT_FLAG", "card": "0..1", "d": "Population includes enrollment status" },

    { "_comment": "=== PHASE 4G: OCCURRENCE LEAF RELATIONSHIPS ===" },
    { "s": "OCCURRENCE", "t": "EVENT_PRIMACY", "type": "HAS_PRIMACY", "card": "0..N", "d": "Occurrence includes first occurrence flags" },
    { "s": "OCCURRENCE", "t": "SEVERITY_AGGREGATION", "type": "HAS_SEVERITY_GROUP", "card": "0..N", "d": "Occurrence includes severity grouping" },
    { "s": "OCCURRENCE", "t": "CAUSALITY_AGGREGATION", "type": "HAS_CAUSALITY_GROUP", "card": "0..N", "d": "Occurrence includes causality grouping" },
    { "s": "OCCURRENCE", "t": "TOXICITY_AGGREGATION", "type": "HAS_TOXICITY_GROUP", "card": "0..N", "d": "Occurrence includes toxicity grouping" },
    { "s": "OCCURRENCE", "t": "MEDICAL_QUERY", "type": "HAS_QUERY", "card": "0..N", "d": "Occurrence includes SMQ/CQ classification" },

    { "_comment": "=== PHASE 4H: OBSERVABLE PROPERTY RELATIONSHIPS (shared bridging FINDING ↔ DERIVED_MEASURE) ===" },
    { "s": "FINDING", "t": "OBSERVABLE_PROPERTY", "type": "OBSERVES", "card": "1:1", "d": "Finding observes a property (--TEST/--TESTCD)" },
    { "s": "DERIVED_MEASURE", "t": "OBSERVABLE_PROPERTY", "type": "MEASURES", "card": "1:1", "d": "Derivation measures a property (PARAM/PARAMCD)" },

    { "_comment": "=== PHASE 4I: CO RECORD STRUCTURE LEAF RELATIONSHIPS ===" },
    { "s": "OBSERVATION", "t": "DATA_DOMAIN", "type": "HAS_DOMAIN", "card": "1:1", "d": "Observation has domain classification" },
    { "s": "OBSERVATION", "t": "RECORD_IDENTITY", "type": "HAS_IDENTITY", "card": "1:1", "d": "Observation has unique identity" },
    { "s": "OBSERVATION", "t": "CROSS_REFERENCE", "type": "HAS_CROSS_REF", "card": "0..N", "d": "Observation may have cross-domain links" },
    { "s": "OBSERVATION", "t": "OBSERVATION_TAXONOMY", "type": "HAS_TAXONOMY", "card": "0..1", "d": "Observation has category classification" },
    { "s": "RESULT", "t": "COLLECTED_UNIT", "type": "HAS_ORIGINAL_UNIT", "card": "0..1", "d": "Result has original collection unit" }
  ]
}
