{
  "description": "Maps USDM Biomedical Concept properties to OC Instance Model facets for BCs in the CDISC Pilot Study",
  "version": "0.1.0",
  "ocModelVersion": "0.16",
  "studySource": "CDISC_Pilot_Study_usdm.json",
  "generatedDate": "2026-03-30",
  "summary": {
    "totalBCs": 161,
    "totalProperties": 1511,
    "matchBreakdown": {
      "codeMatch": 684,
      "decodePattern": 0,
      "nameHeuristic": 639,
      "defaultFallback": 0,
      "codeFix": 16,
      "nameHeuristicV2": 172
    },
    "valueTypeDistribution": {
      "CodeableConcept": 1113,
      "Quantity": 231,
      "dateTime": 167
    }
  },
  "bcMappings": [
    {
      "bcId": "BiomedicalConcept_20",
      "bcName": "Sex",
      "bcCode": "C28421",
      "propertyMappings": [
        {
          "propertyName": "Sex",
          "propertyCode": "C28421",
          "propertyDecode": "Sex",
          "datatype": "string",
          "isEnabled": true,
          "ocFacet": "Identification.Topic",
          "matchMethod": "code_fix",
          "ocValueType": "CodeableConcept"
        },
        {
          "propertyName": "Collection Date Time",
          "propertyCode": "C82515",
          "propertyDecode": "Collection Date Time",
          "datatype": "datetime",
          "isEnabled": true,
          "ocFacet": "Timing.CollectionDateTime",
          "matchMethod": "code_match",
          "ocValueType": "dateTime"
        }
      ]
    },
    {
      "bcId": "BiomedicalConcept_21",
      "bcName": "Race",
      "bcCode": "C17049",
      "propertyMappings": [
        {
          "propertyName": "Race",
          "propertyCode": "C17049",
          "propertyDecode": "Race",
          "datatype": "string",
          "isEnabled": true,
          "ocFacet": "Identification.Topic",
          "matchMethod": "code_fix",
          "ocValueType": "CodeableConcept"
        },
        {
          "propertyName": "Collection Date Time",
          "propertyCode": "C82515",
          "propertyDecode": "Collection Date Time",
          "datatype": "datetime",
          "isEnabled": true,
          "ocFacet": "Timing.CollectionDateTime",
          "matchMethod": "code_match",
          "ocValueType": "dateTime"
        }
      ]
    },
    {
      "bcId": "BiomedicalConcept_22",
      "bcName": "Temperature",
      "bcCode": "C174446",
      "propertyMappings": [
        {
          "propertyName": "VSTESTCD",
          "propertyCode": "C174446",
          "propertyDecode": "TEMP",
          "datatype": "",
          "isEnabled": true,
          "ocFacet": "Identification.Topic",
          "matchMethod": "name_heuristic",
          "ocValueType": "CodeableConcept"
        },
        {
          "propertyName": "VSORRES",
          "propertyCode": "C70856",
          "propertyDecode": "Observation Result",
          "datatype": "float",
          "isEnabled": true,
          "ocFacet": "Result.Value",
          "matchMethod": "code_match",
          "ocValueType": "Quantity"
        },
        {
          "propertyName": "VSORRESU",
          "propertyCode": "C44276",
          "propertyDecode": "Unit of Temperature",
          "datatype": "",
          "isEnabled": true,
          "ocFacet": "Result.Unit",
          "matchMethod": "code_match",
          "ocValueType": "CodeableConcept"
        },
        {
          "propertyName": "VSLOC",
          "propertyCode": "C13717",
          "propertyDecode": "Anatomic Site",
          "datatype": "",
          "isEnabled": true,
          "ocFacet": "Location",
          "matchMethod": "code_match",
          "ocValueType": "CodeableConcept"
        },
        {
          "propertyName": "VSDTC",
          "propertyCode": "C82515",
          "propertyDecode": "Collection Date Time",
          "datatype": "",
          "isEnabled": true,
          "ocFacet": "Timing.CollectionDateTime",
          "matchMethod": "code_match",
          "ocValueType": "dateTime"
        }
      ]
    },
    {
      "bcId": "BiomedicalConcept_23",
      "bcName": "Weight",
      "bcCode": "C25208",
      "propertyMappings": [
        {
          "propertyName": "VSTESTCD",
          "propertyCode": "C25208",
          "propertyDecode": "WEIGHT",
          "datatype": "",
          "isEnabled": true,
          "ocFacet": "Identification.Topic",
          "matchMethod": "name_heuristic",
          "ocValueType": "CodeableConcept"
        },
        {
          "propertyName": "VSORRES",
          "propertyCode": "C70856",
          "propertyDecode": "Observation Result",
          "datatype": "float",
          "isEnabled": true,
          "ocFacet": "Result.Value",
          "matchMethod": "code_match",
          "ocValueType": "Quantity"
        },
        {
          "propertyName": "VSORRESU",
          "propertyCode": "C48208",
          "propertyDecode": "Unit of Weight",
          "datatype": "",
          "isEnabled": true,
          "ocFacet": "Result.Unit",
          "matchMethod": "code_match",
          "ocValueType": "CodeableConcept"
        },
        {
          "propertyName": "VSDTC",
          "propertyCode": "C82515",
          "propertyDecode": "Collection Date Time",
          "datatype": "",
          "isEnabled": true,
          "ocFacet": "Timing.CollectionDateTime",
          "matchMethod": "code_match",
          "ocValueType": "dateTime"
        }
      ]
    },
    {
      "bcId": "BiomedicalConcept_24",
      "bcName": "Height",
      "bcCode": "C25347",
      "propertyMappings": [
        {
          "propertyName": "VSTESTCD",
          "propertyCode": "C25347",
          "propertyDecode": "HEIGHT",
          "datatype": "",
          "isEnabled": true,
          "ocFacet": "Identification.Topic",
          "matchMethod": "name_heuristic",
          "ocValueType": "CodeableConcept"
        },
        {
          "propertyName": "VSORRES",
          "propertyCode": "C70856",
          "propertyDecode": "Observation Result",
          "datatype": "float",
          "isEnabled": true,
          "ocFacet": "Result.Value",
          "matchMethod": "code_match",
          "ocValueType": "Quantity"
        },
        {
          "propertyName": "VSORRESU",
          "propertyCode": "C168688",
          "propertyDecode": "Unit of Height",
          "datatype": "",
          "isEnabled": true,
          "ocFacet": "Result.Unit",
          "matchMethod": "code_match",
          "ocValueType": "CodeableConcept"
        },
        {
          "propertyName": "VSDTC",
          "propertyCode": "C82515",
          "propertyDecode": "Collection Date Time",
          "datatype": "",
          "isEnabled": true,
          "ocFacet": "Timing.CollectionDateTime",
          "matchMethod": "code_match",
          "ocValueType": "dateTime"
        }
      ]
    },
    {
      "bcId": "BiomedicalConcept_25",
      "bcName": "Alanine Aminotransferase Concentration in Serum/Plasma",
      "bcCode": "C64433",
      "propertyMappings": [
        {
          "propertyName": "LBTESTCD",
          "propertyCode": "C64433",
          "propertyDecode": "ALT",
          "datatype": "",
          "isEnabled": true,
          "ocFacet": "Identification.Topic",
          "matchMethod": "name_heuristic",
          "ocValueType": "CodeableConcept"
        },
        {
          "propertyName": "LBORRES",
          "propertyCode": "C70856",
          "propertyDecode": "Observation Result",
          "datatype": "float",
          "isEnabled": true,
          "ocFacet": "Result.Value",
          "matchMethod": "code_match",
          "ocValueType": "Quantity"
        },
        {
          "propertyName": "LBORRESU",
          "propertyCode": "C67365",
          "propertyDecode": "Unit of Catalytic Activity Concentration",
          "datatype": "",
          "isEnabled": true,
          "ocFacet": "Result.Unit",
          "matchMethod": "code_match",
          "ocValueType": "CodeableConcept"
        },
        {
          "propertyName": "LBSPEC",
          "propertyCode": "C70713",
          "propertyDecode": "Biospecimen Type",
          "datatype": "",
          "isEnabled": true,
          "ocFacet": "Specimen",
          "matchMethod": "code_match",
          "ocValueType": "CodeableConcept"
        },
        {
          "propertyName": "LBFAST",
          "propertyCode": "C93566",
          "propertyDecode": "Fasting Status Indicator",
          "datatype": "",
          "isEnabled": true,
          "ocFacet": "CollectionMethod",
          "matchMethod": "name_heuristic",
          "ocValueType": "CodeableConcept"
        }
      ]
    },
    {
      "bcId": "BiomedicalConcept_26",
      "bcName": "Albumin Presence in Urine",
      "bcCode": "C64431",
      "propertyMappings": [
        {
          "propertyName": "LBTESTCD",
          "propertyCode": "C64431",
          "propertyDecode": "ALB",
          "datatype": "",
          "isEnabled": true,
          "ocFacet": "Identification.Topic",
          "matchMethod": "name_heuristic",
          "ocValueType": "CodeableConcept"
        },
        {
          "propertyName": "LBORRES",
          "propertyCode": "C70856",
          "propertyDecode": "Observation Result",
          "datatype": "text",
          "isEnabled": true,
          "ocFacet": "Result.Value",
          "matchMethod": "code_match",
          "ocValueType": "CodeableConcept"
        },
        {
          "propertyName": "LBSPEC",
          "propertyCode": "C70713",
          "propertyDecode": "Biospecimen Type",
          "datatype": "",
          "isEnabled": true,
          "ocFacet": "Specimen",
          "matchMethod": "code_match",
          "ocValueType": "CodeableConcept"
        },
        {
          "propertyName": "LBFAST",
          "propertyCode": "C93566",
          "propertyDecode": "Fasting Status Indicator",
          "datatype": "",
          "isEnabled": true,
          "ocFacet": "CollectionMethod",
          "matchMethod": "name_heuristic",
          "ocValueType": "CodeableConcept"
        }
      ]
    },
    {
      "bcId": "BiomedicalConcept_27",
      "bcName": "Alkaline Phosphatase Concentration in Serum/Plasma",
      "bcCode": "C64432",
      "propertyMappings": [
        {
          "propertyName": "LBTESTCD",
          "propertyCode": "C64432",
          "propertyDecode": "ALP",
          "datatype": "",
          "isEnabled": true,
          "ocFacet": "Identification.Topic",
          "matchMethod": "name_heuristic",
          "ocValueType": "CodeableConcept"
        },
        {
          "propertyName": "LBORRES",
          "propertyCode": "C70856",
          "propertyDecode": "Observation Result",
          "datatype": "float",
          "isEnabled": true,
          "ocFacet": "Result.Value",
          "matchMethod": "code_match",
          "ocValueType": "Quantity"
        },
        {
          "propertyName": "LBORRESU",
          "propertyCode": "C67365",
          "propertyDecode": "Unit of Catalytic Activity Concentration",
          "datatype": "",
          "isEnabled": true,
          "ocFacet": "Result.Unit",
          "matchMethod": "code_match",
          "ocValueType": "CodeableConcept"
        },
        {
          "propertyName": "LBSPEC",
          "propertyCode": "C70713",
          "propertyDecode": "Biospecimen Type",
          "datatype": "",
          "isEnabled": true,
          "ocFacet": "Specimen",
          "matchMethod": "code_match",
          "ocValueType": "CodeableConcept"
        },
        {
          "propertyName": "LBFAST",
          "propertyCode": "C93566",
          "propertyDecode": "Fasting Status Indicator",
          "datatype": "",
          "isEnabled": true,
          "ocFacet": "CollectionMethod",
          "matchMethod": "name_heuristic",
          "ocValueType": "CodeableConcept"
        }
      ]
    },
    {
      "bcId": "BiomedicalConcept_28",
      "bcName": "Aspartate Aminotransferase in Serum/Plasma",
      "bcCode": "C64467",
      "propertyMappings": [
        {
          "propertyName": "LBTESTCD",
          "propertyCode": "C64467",
          "propertyDecode": "AST",
          "datatype": "",
          "isEnabled": true,
          "ocFacet": "Identification.Topic",
          "matchMethod": "name_heuristic",
          "ocValueType": "CodeableConcept"
        },
        {
          "propertyName": "LBORRES",
          "propertyCode": "C70856",
          "propertyDecode": "Observation Result",
          "datatype": "float",
          "isEnabled": true,
          "ocFacet": "Result.Value",
          "matchMethod": "code_match",
          "ocValueType": "Quantity"
        },
        {
          "propertyName": "LBORRESU",
          "propertyCode": "C67365",
          "propertyDecode": "Unit of Catalytic Activity Concentration",
          "datatype": "",
          "isEnabled": true,
          "ocFacet": "Result.Unit",
          "matchMethod": "code_match",
          "ocValueType": "CodeableConcept"
        },
        {
          "propertyName": "LBSPEC",
          "propertyCode": "C70713",
          "propertyDecode": "Biospecimen Type",
          "datatype": "",
          "isEnabled": true,
          "ocFacet": "Specimen",
          "matchMethod": "code_match",
          "ocValueType": "CodeableConcept"
        },
        {
          "propertyName": "LBFAST",
          "propertyCode": "C93566",
          "propertyDecode": "Fasting Status Indicator",
          "datatype": "",
          "isEnabled": true,
          "ocFacet": "CollectionMethod",
          "matchMethod": "name_heuristic",
          "ocValueType": "CodeableConcept"
        }
      ]
    },
    {
      "bcId": "BiomedicalConcept_29",
      "bcName": "Creatinine Concentration in Urine",
      "bcCode": "C64547",
      "propertyMappings": [
        {
          "propertyName": "LBTESTCD",
          "propertyCode": "C64547",
          "propertyDecode": "CREAT",
          "datatype": "",
          "isEnabled": true,
          "ocFacet": "Identification.Topic",
          "matchMethod": "name_heuristic",
          "ocValueType": "CodeableConcept"
        },
        {
          "propertyName": "LBORRES",
          "propertyCode": "C70856",
          "propertyDecode": "Observation Result",
          "datatype": "float",
          "isEnabled": true,
          "ocFacet": "Result.Value",
          "matchMethod": "code_match",
          "ocValueType": "Quantity"
        },
        {
          "propertyName": "LBORRESU",
          "propertyCode": "C48207",
          "propertyDecode": "Unit of Concentration",
          "datatype": "",
          "isEnabled": true,
          "ocFacet": "Result.Unit",
          "matchMethod": "code_match",
          "ocValueType": "CodeableConcept"
        },
        {
          "propertyName": "LBSPEC",
          "propertyCode": "C70713",
          "propertyDecode": "Biospecimen Type",
          "datatype": "",
          "isEnabled": true,
          "ocFacet": "Specimen",
          "matchMethod": "code_match",
          "ocValueType": "CodeableConcept"
        },
        {
          "propertyName": "LBFAST",
          "propertyCode": "C93566",
          "propertyDecode": "Fasting Status Indicator",
          "datatype": "",
          "isEnabled": true,
          "ocFacet": "CollectionMethod",
          "matchMethod": "name_heuristic",
          "ocValueType": "CodeableConcept"
        }
      ]
    },
    {
      "bcId": "BiomedicalConcept_30",
      "bcName": "Potassium Concentration in Urine",
      "bcCode": "C64853",
      "propertyMappings": [
        {
          "propertyName": "LBTESTCD",
          "propertyCode": "C64853",
          "propertyDecode": "K",
          "datatype": "",
          "isEnabled": true,
          "ocFacet": "Identification.Topic",
          "matchMethod": "name_heuristic",
          "ocValueType": "CodeableConcept"
        },
        {
          "propertyName": "LBORRES",
          "propertyCode": "C70856",
          "propertyDecode": "Observation Result",
          "datatype": "float",
          "isEnabled": true,
          "ocFacet": "Result.Value",
          "matchMethod": "code_match",
          "ocValueType": "Quantity"
        },
        {
          "propertyName": "LBORRESU",
          "propertyCode": "C64567",
          "propertyDecode": "Molarity Unit",
          "datatype": "",
          "isEnabled": true,
          "ocFacet": "Result.Unit",
          "matchMethod": "code_match",
          "ocValueType": "CodeableConcept"
        },
        {
          "propertyName": "LBSPEC",
          "propertyCode": "C70713",
          "propertyDecode": "Biospecimen Type",
          "datatype": "",
          "isEnabled": true,
          "ocFacet": "Specimen",
          "matchMethod": "code_match",
          "ocValueType": "CodeableConcept"
        },
        {
          "propertyName": "LBFAST",
          "propertyCode": "C93566",
          "propertyDecode": "Fasting Status Indicator",
          "datatype": "",
          "isEnabled": true,
          "ocFacet": "CollectionMethod",
          "matchMethod": "name_heuristic",
          "ocValueType": "CodeableConcept"
        }
      ]
    },
    {
      "bcId": "BiomedicalConcept_31",
      "bcName": "Sodium Concentration in Urine",
      "bcCode": "C64809",
      "propertyMappings": [
        {
          "propertyName": "LBTESTCD",
          "propertyCode": "C64809",
          "propertyDecode": "SODIUM",
          "datatype": "",
          "isEnabled": true,
          "ocFacet": "Identification.Topic",
          "matchMethod": "name_heuristic",
          "ocValueType": "CodeableConcept"
        },
        {
          "propertyName": "LBORRES",
          "propertyCode": "C70856",
          "propertyDecode": "Observation Result",
          "datatype": "float",
          "isEnabled": true,
          "ocFacet": "Result.Value",
          "matchMethod": "code_match",
          "ocValueType": "Quantity"
        },
        {
          "propertyName": "LBORRESU",
          "propertyCode": "C64567",
          "propertyDecode": "Molarity Unit",
          "datatype": "",
          "isEnabled": true,
          "ocFacet": "Result.Unit",
          "matchMethod": "code_match",
          "ocValueType": "CodeableConcept"
        },
        {
          "propertyName": "LBSPEC",
          "propertyCode": "C70713",
          "propertyDecode": "Biospecimen Type",
          "datatype": "",
          "isEnabled": true,
          "ocFacet": "Specimen",
          "matchMethod": "code_match",
          "ocValueType": "CodeableConcept"
        },
        {
          "propertyName": "LBFAST",
          "propertyCode": "C93566",
          "propertyDecode": "Fasting Status Indicator",
          "datatype": "",
          "isEnabled": true,
          "ocFacet": "CollectionMethod",
          "matchMethod": "name_heuristic",
          "ocValueType": "CodeableConcept"
        }
      ]
    },
    {
      "bcId": "BiomedicalConcept_32",
      "bcName": "Hemoglobin A1C Concentration in Blood",
      "bcCode": "C64849",
      "propertyMappings": [
        {
          "propertyName": "LBTESTCD",
          "propertyCode": "C64849",
          "propertyDecode": "HBA1C",
          "datatype": "",
          "isEnabled": true,
          "ocFacet": "Identification.Topic",
          "matchMethod": "name_heuristic",
          "ocValueType": "CodeableConcept"
        },
        {
          "propertyName": "LBORRES",
          "propertyCode": "C70856",
          "propertyDecode": "Observation Result",
          "datatype": "float",
          "isEnabled": true,
          "ocFacet": "Result.Value",
          "matchMethod": "code_match",
          "ocValueType": "Quantity"
        },
        {
          "propertyName": "LBORRESU",
          "propertyCode": "No Concept Code",
          "propertyDecode": "LBORRESU",
          "datatype": "",
          "isEnabled": true,
          "ocFacet": "Result.Value",
          "matchMethod": "name_heuristic",
          "ocValueType": "CodeableConcept"
        },
        {
          "propertyName": "LBSPEC",
          "propertyCode": "C70713",
          "propertyDecode": "Biospecimen Type",
          "datatype": "",
          "isEnabled": true,
          "ocFacet": "Specimen",
          "matchMethod": "code_match",
          "ocValueType": "CodeableConcept"
        },
        {
          "propertyName": "LBFAST",
          "propertyCode": "C93566",
          "propertyDecode": "Fasting Status Indicator",
          "datatype": "",
          "isEnabled": true,
          "ocFacet": "CollectionMethod",
          "matchMethod": "name_heuristic",
          "ocValueType": "CodeableConcept"
        }
      ]
    },
    {
      "bcId": "BiomedicalConcept_1",
      "bcName": "Adverse Event Prespecified",
      "bcCode": "C179175",
      "propertyMappings": [
        {
          "propertyName": "AETERM",
          "propertyCode": "C78541",
          "propertyDecode": "Adverse Event Verbatim Description",
          "datatype": "text",
          "isEnabled": true,
          "ocFacet": "Identification.Topic",
          "matchMethod": "name_heuristic",
          "ocValueType": "CodeableConcept"
        },
        {
          "propertyName": "AEDECOD",
          "propertyCode": "C83344",
          "propertyDecode": "Adverse Event Dictionary Derived Term",
          "datatype": "text",
          "isEnabled": true,
          "ocFacet": "Identification.Topic.DictionaryCoding",
          "matchMethod": "name_heuristic",
          "ocValueType": "CodeableConcept"
        },
        {
          "propertyName": "AEHLGT",
          "propertyCode": "No Concept Code",
          "propertyDecode": "AEHLGT",
          "datatype": "text",
          "isEnabled": true,
          "ocFacet": "Identification.Topic.DictionaryCoding",
          "matchMethod": "code_fix",
          "ocValueType": "CodeableConcept"
        },
        {
          "propertyName": "AEHLGTCD",
          "propertyCode": "No Concept Code",
          "propertyDecode": "AEHLGTCD",
          "datatype": "integer",
          "isEnabled": true,
          "ocFacet": "Identification.Topic.DictionaryCoding",
          "matchMethod": "code_fix",
          "ocValueType": "CodeableConcept",
          "ocValueTypeNote": "integer is the coding.code component within CodeableConcept"
        },
        {
          "propertyName": "AEPRESP",
          "propertyCode": "C87840",
          "propertyDecode": "Adverse Event Pre-specified",
          "datatype": "text",
          "isEnabled": true,
          "ocFacet": "Identification.Topic",
          "matchMethod": "name_heuristic",
          "ocValueType": "CodeableConcept"
        },
        {
          "propertyName": "AELOC",
          "propertyCode": "C83205",
          "propertyDecode": "Adverse Event Location",
          "datatype": "text",
          "isEnabled": true,
          "ocFacet": "Location",
          "matchMethod": "name_heuristic",
          "ocValueType": "CodeableConcept"
        },
        {
          "propertyName": "AESEV",
          "propertyCode": "C53253",
          "propertyDecode": "Severity of Adverse Event",
          "datatype": "text",
          "isEnabled": true,
          "ocFacet": "Severity",
          "matchMethod": "code_match",
          "ocValueType": "CodeableConcept"
        },
        {
          "propertyName": "AESER",
          "propertyCode": "C53252",
          "propertyDecode": "Seriousness of Adverse Event",
          "datatype": "text",
          "isEnabled": true,
          "ocFacet": "EventObservation.Seriousness",
          "matchMethod": "code_fix",
          "ocValueType": "CodeableConcept"
        },
        {
          "propertyName": "AEACN",
          "propertyCode": "C83013",
          "propertyDecode": "Adverse Event Action Taken with Study Treatment",
          "datatype": "text",
          "isEnabled": true,
          "ocFacet": "ActionTaken",
          "matchMethod": "code_match",
          "ocValueType": "CodeableConcept"
        },
        {
          "propertyName": "AEACNOTH",
          "propertyCode": "C83109",
          "propertyDecode": "Other Actions taken in Response to Adverse Event",
          "datatype": "text",
          "isEnabled": true,
          "ocFacet": "EventObservation.qualifier",
          "matchMethod": "name_heuristic",
          "ocValueType": "CodeableConcept"
        },
        {
          "propertyName": "AEREL",
          "propertyCode": "C41358",
          "propertyDecode": "Adverse Event Attribution to Product or Procedure",
          "datatype": "text",
          "isEnabled": true,
          "ocFacet": "Causality",
          "matchMethod": "code_match",
          "ocValueType": "CodeableConcept"
        },
        {
          "propertyName": "AERELNST",
          "propertyCode": "C83210",
          "propertyDecode": "Adverse Event Relationship to Non Study Treatment",
          "datatype": "text",
          "isEnabled": true,
          "ocFacet": "EventObservation.qualifier",
          "matchMethod": "code_fix",
          "ocValueType": "CodeableConcept"
        },
        {
          "propertyName": "AEPATT",
          "propertyCode": "C83208",
          "propertyDecode": "Adverse Event Pattern",
          "datatype": "text",
          "isEnabled": true,
          "ocFacet": "EventObservation.qualifier",
          "matchMethod": "name_heuristic",
          "ocValueType": "CodeableConcept"
        },
        {
          "propertyName": "AEOUT",
          "propertyCode": "C49489",
          "propertyDecode": "Adverse Event Outcome",
          "datatype": "text",
          "isEnabled": true,
          "ocFacet": "Outcome",
          "matchMethod": "code_match",
          "ocValueType": "CodeableConcept"
        },
        {
          "propertyName": "AESCAN",
          "propertyCode": "C83211",
          "propertyDecode": "Adverse Event Involves Cancer",
          "datatype": "text",
          "isEnabled": true,
          "ocFacet": "EventObservation.qualifier",
          "matchMethod": "name_heuristic",
          "ocValueType": "CodeableConcept"
        },
        {
          "propertyName": "AESCONG",
          "propertyCode": "C83117",
          "propertyDecode": "Adverse Event Seriousness Due to Congenital Anomaly",
          "datatype": "text",
          "isEnabled": true,
          "ocFacet": "SeriousnessCriteria",
          "matchMethod": "code_match",
          "ocValueType": "CodeableConcept"
        },
        {
          "propertyName": "AESDISAB",
          "propertyCode": "C113380",
          "propertyDecode": "Disabling Adverse Event",
          "datatype": "text",
          "isEnabled": true,
          "ocFacet": "SeriousnessCriteria",
          "matchMethod": "code_match",
          "ocValueType": "CodeableConcept"
        },
        {
          "propertyName": "AESDTH",
          "propertyCode": "C48275",
          "propertyDecode": "Death Related to Adverse Event",
          "datatype": "text",
          "isEnabled": true,
          "ocFacet": "SeriousnessCriteria",
          "matchMethod": "code_match",
          "ocValueType": "CodeableConcept"
        },
        {
          "propertyName": "AESHOSP",
          "propertyCode": "C83052",
          "propertyDecode": "Adverse Event associated with Hospitalization",
          "datatype": "text",
          "isEnabled": true,
          "ocFacet": "SeriousnessCriteria",
          "matchMethod": "code_match",
          "ocValueType": "CodeableConcept"
        },
        {
          "propertyName": "AESLIFE",
          "propertyCode": "C84266",
          "propertyDecode": "Life Threatening Adverse Event",
          "datatype": "text",
          "isEnabled": true,
          "ocFacet": "SeriousnessCriteria",
          "matchMethod": "code_match",
          "ocValueType": "CodeableConcept"
        },
        {
          "propertyName": "AESOD",
          "propertyCode": "C83214",
          "propertyDecode": "Adverse Event Occurred with Overdose",
          "datatype": "text",
          "isEnabled": true,
          "ocFacet": "EventObservation.qualifier",
          "matchMethod": "code_fix",
          "ocValueType": "CodeableConcept"
        },
        {
          "propertyName": "AESMIE",
          "propertyCode": "C83053",
          "propertyDecode": "Adverse Event Associated with Serious Medical Event",
          "datatype": "text",
          "isEnabled": true,
          "ocFacet": "SeriousnessCriteria",
          "matchMethod": "code_match",
          "ocValueType": "CodeableConcept"
        },
        {
          "propertyName": "AECONTRT",
          "propertyCode": "C83199",
          "propertyDecode": "Adverse Event Concomitant Treatment",
          "datatype": "text",
          "isEnabled": true,
          "ocFacet": "EventObservation.qualifier",
          "matchMethod": "name_heuristic",
          "ocValueType": "CodeableConcept"
        },
        {
          "propertyName": "AETOXGR",
          "propertyCode": "C78605",
          "propertyDecode": "Adverse Event Toxicity Grade",
          "datatype": "text",
          "isEnabled": true,
          "ocFacet": "Severity",
          "matchMethod": "code_fix",
          "ocValueType": "CodeableConcept"
        },
        {
          "propertyName": "AESTDTC",
          "propertyCode": "C83215",
          "propertyDecode": "Adverse Event Start Date Time",
          "datatype": "datetime",
          "isEnabled": true,
          "ocFacet": "Timing.StartDate",
          "matchMethod": "name_heuristic",
          "ocValueType": "dateTime"
        },
        {
          "propertyName": "AEENDTC",
          "propertyCode": "C83201",
          "propertyDecode": "Adverse Event End Date Time",
          "datatype": "datetime",
          "isEnabled": true,
          "ocFacet": "Timing.EndDate",
          "matchMethod": "name_heuristic",
          "ocValueType": "dateTime"
        }
      ]
    },
    {
      "bcId": "BiomedicalConcept_2",
      "bcName": "Systolic Blood Pressure",
      "bcCode": "C25298",
      "propertyMappings": [
        {
          "propertyName": "VSTESTCD",
          "propertyCode": "C25298",
          "propertyDecode": "SYSBP",
          "datatype": "",
          "isEnabled": true,
          "ocFacet": "Identification.Topic",
          "matchMethod": "name_heuristic",
          "ocValueType": "CodeableConcept"
        },
        {
          "propertyName": "VSORRES",
          "propertyCode": "C70856",
          "propertyDecode": "Observation Result",
          "datatype": "integer",
          "isEnabled": true,
          "ocFacet": "Result.Value",
          "matchMethod": "code_match",
          "ocValueType": "Quantity"
        },
        {
          "propertyName": "VSORRESU",
          "propertyCode": "C49669",
          "propertyDecode": "Unit of Pressure",
          "datatype": "",
          "isEnabled": true,
          "ocFacet": "Result.Unit",
          "matchMethod": "code_match",
          "ocValueType": "CodeableConcept"
        },
        {
          "propertyName": "VSPOS",
          "propertyCode": "C62164",
          "propertyDecode": "Body Position",
          "datatype": "",
          "isEnabled": true,
          "ocFacet": "BodyPosition",
          "matchMethod": "code_match",
          "ocValueType": "CodeableConcept"
        },
        {
          "propertyName": "VSLOC",
          "propertyCode": "C13717",
          "propertyDecode": "Anatomic Site",
          "datatype": "",
          "isEnabled": true,
          "ocFacet": "Location",
          "matchMethod": "code_match",
          "ocValueType": "CodeableConcept"
        },
        {
          "propertyName": "VSLAT",
          "propertyCode": "C25185",
          "propertyDecode": "Laterality",
          "datatype": "",
          "isEnabled": true,
          "ocFacet": "Location.Laterality",
          "matchMethod": "code_match",
          "ocValueType": "CodeableConcept"
        },
        {
          "propertyName": "VSDTC",
          "propertyCode": "C82515",
          "propertyDecode": "Collection Date Time",
          "datatype": "",
          "isEnabled": true,
          "ocFacet": "Timing.CollectionDateTime",
          "matchMethod": "code_match",
          "ocValueType": "dateTime"
        }
      ]
    },
    {
      "bcId": "BiomedicalConcept_3",
      "bcName": "Diastolic Blood Pressure",
      "bcCode": "C25299",
      "propertyMappings": [
        {
          "propertyName": "VSTESTCD",
          "propertyCode": "C25299",
          "propertyDecode": "DIABP",
          "datatype": "",
          "isEnabled": true,
          "ocFacet": "Identification.Topic",
          "matchMethod": "name_heuristic",
          "ocValueType": "CodeableConcept"
        },
        {
          "propertyName": "VSORRES",
          "propertyCode": "C70856",
          "propertyDecode": "Observation Result",
          "datatype": "integer",
          "isEnabled": true,
          "ocFacet": "Result.Value",
          "matchMethod": "code_match",
          "ocValueType": "Quantity"
        },
        {
          "propertyName": "VSORRESU",
          "propertyCode": "C49669",
          "propertyDecode": "Unit of Pressure",
          "datatype": "",
          "isEnabled": true,
          "ocFacet": "Result.Unit",
          "matchMethod": "code_match",
          "ocValueType": "CodeableConcept"
        },
        {
          "propertyName": "VSPOS",
          "propertyCode": "C62164",
          "propertyDecode": "Body Position",
          "datatype": "",
          "isEnabled": true,
          "ocFacet": "BodyPosition",
          "matchMethod": "code_match",
          "ocValueType": "CodeableConcept"
        },
        {
          "propertyName": "VSLOC",
          "propertyCode": "C13717",
          "propertyDecode": "Anatomic Site",
          "datatype": "",
          "isEnabled": true,
          "ocFacet": "Location",
          "matchMethod": "code_match",
          "ocValueType": "CodeableConcept"
        },
        {
          "propertyName": "VSLAT",
          "propertyCode": "C25185",
          "propertyDecode": "Laterality",
          "datatype": "",
          "isEnabled": true,
          "ocFacet": "Location.Laterality",
          "matchMethod": "code_match",
          "ocValueType": "CodeableConcept"
        },
        {
          "propertyName": "VSDTC",
          "propertyCode": "C82515",
          "propertyDecode": "Collection Date Time",
          "datatype": "",
          "isEnabled": true,
          "ocFacet": "Timing.CollectionDateTime",
          "matchMethod": "code_match",
          "ocValueType": "dateTime"
        }
      ]
    },
    {
      "bcId": "BiomedicalConcept_4",
      "bcName": "Temperature",
      "bcCode": "C174446",
      "propertyMappings": [
        {
          "propertyName": "VSTESTCD",
          "propertyCode": "C174446",
          "propertyDecode": "TEMP",
          "datatype": "",
          "isEnabled": true,
          "ocFacet": "Identification.Topic",
          "matchMethod": "name_heuristic",
          "ocValueType": "CodeableConcept"
        },
        {
          "propertyName": "VSORRES",
          "propertyCode": "C70856",
          "propertyDecode": "Observation Result",
          "datatype": "float",
          "isEnabled": true,
          "ocFacet": "Result.Value",
          "matchMethod": "code_match",
          "ocValueType": "Quantity"
        },
        {
          "propertyName": "VSORRESU",
          "propertyCode": "C44276",
          "propertyDecode": "Unit of Temperature",
          "datatype": "",
          "isEnabled": true,
          "ocFacet": "Result.Unit",
          "matchMethod": "code_match",
          "ocValueType": "CodeableConcept"
        },
        {
          "propertyName": "VSLOC",
          "propertyCode": "C13717",
          "propertyDecode": "Anatomic Site",
          "datatype": "",
          "isEnabled": true,
          "ocFacet": "Location",
          "matchMethod": "code_match",
          "ocValueType": "CodeableConcept"
        },
        {
          "propertyName": "VSDTC",
          "propertyCode": "C82515",
          "propertyDecode": "Collection Date Time",
          "datatype": "",
          "isEnabled": true,
          "ocFacet": "Timing.CollectionDateTime",
          "matchMethod": "code_match",
          "ocValueType": "dateTime"
        }
      ]
    },
    {
      "bcId": "BiomedicalConcept_5",
      "bcName": "Weight",
      "bcCode": "C25208",
      "propertyMappings": [
        {
          "propertyName": "VSTESTCD",
          "propertyCode": "C25208",
          "propertyDecode": "WEIGHT",
          "datatype": "",
          "isEnabled": true,
          "ocFacet": "Identification.Topic",
          "matchMethod": "name_heuristic",
          "ocValueType": "CodeableConcept"
        },
        {
          "propertyName": "VSORRES",
          "propertyCode": "C70856",
          "propertyDecode": "Observation Result",
          "datatype": "float",
          "isEnabled": true,
          "ocFacet": "Result.Value",
          "matchMethod": "code_match",
          "ocValueType": "Quantity"
        },
        {
          "propertyName": "VSORRESU",
          "propertyCode": "C48208",
          "propertyDecode": "Unit of Weight",
          "datatype": "",
          "isEnabled": true,
          "ocFacet": "Result.Unit",
          "matchMethod": "code_match",
          "ocValueType": "CodeableConcept"
        },
        {
          "propertyName": "VSDTC",
          "propertyCode": "C82515",
          "propertyDecode": "Collection Date Time",
          "datatype": "",
          "isEnabled": true,
          "ocFacet": "Timing.CollectionDateTime",
          "matchMethod": "code_match",
          "ocValueType": "dateTime"
        }
      ]
    },
    {
      "bcId": "BiomedicalConcept_6",
      "bcName": "Height",
      "bcCode": "C25347",
      "propertyMappings": [
        {
          "propertyName": "VSTESTCD",
          "propertyCode": "C25347",
          "propertyDecode": "HEIGHT",
          "datatype": "",
          "isEnabled": true,
          "ocFacet": "Identification.Topic",
          "matchMethod": "name_heuristic",
          "ocValueType": "CodeableConcept"
        },
        {
          "propertyName": "VSORRES",
          "propertyCode": "C70856",
          "propertyDecode": "Observation Result",
          "datatype": "float",
          "isEnabled": true,
          "ocFacet": "Result.Value",
          "matchMethod": "code_match",
          "ocValueType": "Quantity"
        },
        {
          "propertyName": "VSORRESU",
          "propertyCode": "C168688",
          "propertyDecode": "Unit of Height",
          "datatype": "",
          "isEnabled": true,
          "ocFacet": "Result.Unit",
          "matchMethod": "code_match",
          "ocValueType": "CodeableConcept"
        },
        {
          "propertyName": "VSDTC",
          "propertyCode": "C82515",
          "propertyDecode": "Collection Date Time",
          "datatype": "",
          "isEnabled": true,
          "ocFacet": "Timing.CollectionDateTime",
          "matchMethod": "code_match",
          "ocValueType": "dateTime"
        }
      ]
    },
    {
      "bcId": "BiomedicalConcept_7",
      "bcName": "Alanine Aminotransferase Concentration in Serum/Plasma",
      "bcCode": "C64433",
      "propertyMappings": [
        {
          "propertyName": "LBTESTCD",
          "propertyCode": "C64433",
          "propertyDecode": "ALT",
          "datatype": "",
          "isEnabled": true,
          "ocFacet": "Identification.Topic",
          "matchMethod": "name_heuristic",
          "ocValueType": "CodeableConcept"
        },
        {
          "propertyName": "LBORRES",
          "propertyCode": "C70856",
          "propertyDecode": "Observation Result",
          "datatype": "float",
          "isEnabled": true,
          "ocFacet": "Result.Value",
          "matchMethod": "code_match",
          "ocValueType": "Quantity"
        },
        {
          "propertyName": "LBORRESU",
          "propertyCode": "C67365",
          "propertyDecode": "Unit of Catalytic Activity Concentration",
          "datatype": "",
          "isEnabled": true,
          "ocFacet": "Result.Unit",
          "matchMethod": "code_match",
          "ocValueType": "CodeableConcept"
        },
        {
          "propertyName": "LBSPEC",
          "propertyCode": "C70713",
          "propertyDecode": "Biospecimen Type",
          "datatype": "",
          "isEnabled": true,
          "ocFacet": "Specimen",
          "matchMethod": "code_match",
          "ocValueType": "CodeableConcept"
        },
        {
          "propertyName": "LBFAST",
          "propertyCode": "C93566",
          "propertyDecode": "Fasting Status Indicator",
          "datatype": "",
          "isEnabled": true,
          "ocFacet": "CollectionMethod",
          "matchMethod": "name_heuristic",
          "ocValueType": "CodeableConcept"
        }
      ]
    },
    {
      "bcId": "BiomedicalConcept_8",
      "bcName": "Albumin Presence in Urine",
      "bcCode": "C64431",
      "propertyMappings": [
        {
          "propertyName": "LBTESTCD",
          "propertyCode": "C64431",
          "propertyDecode": "ALB",
          "datatype": "",
          "isEnabled": true,
          "ocFacet": "Identification.Topic",
          "matchMethod": "name_heuristic",
          "ocValueType": "CodeableConcept"
        },
        {
          "propertyName": "LBORRES",
          "propertyCode": "C70856",
          "propertyDecode": "Observation Result",
          "datatype": "text",
          "isEnabled": true,
          "ocFacet": "Result.Value",
          "matchMethod": "code_match",
          "ocValueType": "CodeableConcept"
        },
        {
          "propertyName": "LBSPEC",
          "propertyCode": "C70713",
          "propertyDecode": "Biospecimen Type",
          "datatype": "",
          "isEnabled": true,
          "ocFacet": "Specimen",
          "matchMethod": "code_match",
          "ocValueType": "CodeableConcept"
        },
        {
          "propertyName": "LBFAST",
          "propertyCode": "C93566",
          "propertyDecode": "Fasting Status Indicator",
          "datatype": "",
          "isEnabled": true,
          "ocFacet": "CollectionMethod",
          "matchMethod": "name_heuristic",
          "ocValueType": "CodeableConcept"
        }
      ]
    },
    {
      "bcId": "BiomedicalConcept_9",
      "bcName": "Alkaline Phosphatase Concentration in Serum/Plasma",
      "bcCode": "C64432",
      "propertyMappings": [
        {
          "propertyName": "LBTESTCD",
          "propertyCode": "C64432",
          "propertyDecode": "ALP",
          "datatype": "",
          "isEnabled": true,
          "ocFacet": "Identification.Topic",
          "matchMethod": "name_heuristic",
          "ocValueType": "CodeableConcept"
        },
        {
          "propertyName": "LBORRES",
          "propertyCode": "C70856",
          "propertyDecode": "Observation Result",
          "datatype": "float",
          "isEnabled": true,
          "ocFacet": "Result.Value",
          "matchMethod": "code_match",
          "ocValueType": "Quantity"
        },
        {
          "propertyName": "LBORRESU",
          "propertyCode": "C67365",
          "propertyDecode": "Unit of Catalytic Activity Concentration",
          "datatype": "",
          "isEnabled": true,
          "ocFacet": "Result.Unit",
          "matchMethod": "code_match",
          "ocValueType": "CodeableConcept"
        },
        {
          "propertyName": "LBSPEC",
          "propertyCode": "C70713",
          "propertyDecode": "Biospecimen Type",
          "datatype": "",
          "isEnabled": true,
          "ocFacet": "Specimen",
          "matchMethod": "code_match",
          "ocValueType": "CodeableConcept"
        },
        {
          "propertyName": "LBFAST",
          "propertyCode": "C93566",
          "propertyDecode": "Fasting Status Indicator",
          "datatype": "",
          "isEnabled": true,
          "ocFacet": "CollectionMethod",
          "matchMethod": "name_heuristic",
          "ocValueType": "CodeableConcept"
        }
      ]
    },
    {
      "bcId": "BiomedicalConcept_10",
      "bcName": "Aspartate Aminotransferase in Serum/Plasma",
      "bcCode": "C64467",
      "propertyMappings": [
        {
          "propertyName": "LBTESTCD",
          "propertyCode": "C64467",
          "propertyDecode": "AST",
          "datatype": "",
          "isEnabled": true,
          "ocFacet": "Identification.Topic",
          "matchMethod": "name_heuristic",
          "ocValueType": "CodeableConcept"
        },
        {
          "propertyName": "LBORRES",
          "propertyCode": "C70856",
          "propertyDecode": "Observation Result",
          "datatype": "float",
          "isEnabled": true,
          "ocFacet": "Result.Value",
          "matchMethod": "code_match",
          "ocValueType": "Quantity"
        },
        {
          "propertyName": "LBORRESU",
          "propertyCode": "C67365",
          "propertyDecode": "Unit of Catalytic Activity Concentration",
          "datatype": "",
          "isEnabled": true,
          "ocFacet": "Result.Unit",
          "matchMethod": "code_match",
          "ocValueType": "CodeableConcept"
        },
        {
          "propertyName": "LBSPEC",
          "propertyCode": "C70713",
          "propertyDecode": "Biospecimen Type",
          "datatype": "",
          "isEnabled": true,
          "ocFacet": "Specimen",
          "matchMethod": "code_match",
          "ocValueType": "CodeableConcept"
        },
        {
          "propertyName": "LBFAST",
          "propertyCode": "C93566",
          "propertyDecode": "Fasting Status Indicator",
          "datatype": "",
          "isEnabled": true,
          "ocFacet": "CollectionMethod",
          "matchMethod": "name_heuristic",
          "ocValueType": "CodeableConcept"
        }
      ]
    },
    {
      "bcId": "BiomedicalConcept_11",
      "bcName": "Creatinine Concentration in Urine",
      "bcCode": "C64547",
      "propertyMappings": [
        {
          "propertyName": "LBTESTCD",
          "propertyCode": "C64547",
          "propertyDecode": "CREAT",
          "datatype": "",
          "isEnabled": true,
          "ocFacet": "Identification.Topic",
          "matchMethod": "name_heuristic",
          "ocValueType": "CodeableConcept"
        },
        {
          "propertyName": "LBORRES",
          "propertyCode": "C70856",
          "propertyDecode": "Observation Result",
          "datatype": "float",
          "isEnabled": true,
          "ocFacet": "Result.Value",
          "matchMethod": "code_match",
          "ocValueType": "Quantity"
        },
        {
          "propertyName": "LBORRESU",
          "propertyCode": "C48207",
          "propertyDecode": "Unit of Concentration",
          "datatype": "",
          "isEnabled": true,
          "ocFacet": "Result.Unit",
          "matchMethod": "code_match",
          "ocValueType": "CodeableConcept"
        },
        {
          "propertyName": "LBSPEC",
          "propertyCode": "C70713",
          "propertyDecode": "Biospecimen Type",
          "datatype": "",
          "isEnabled": true,
          "ocFacet": "Specimen",
          "matchMethod": "code_match",
          "ocValueType": "CodeableConcept"
        },
        {
          "propertyName": "LBFAST",
          "propertyCode": "C93566",
          "propertyDecode": "Fasting Status Indicator",
          "datatype": "",
          "isEnabled": true,
          "ocFacet": "CollectionMethod",
          "matchMethod": "name_heuristic",
          "ocValueType": "CodeableConcept"
        }
      ]
    },
    {
      "bcId": "BiomedicalConcept_12",
      "bcName": "Potassium Concentration in Urine",
      "bcCode": "C64853",
      "propertyMappings": [
        {
          "propertyName": "LBTESTCD",
          "propertyCode": "C64853",
          "propertyDecode": "K",
          "datatype": "",
          "isEnabled": true,
          "ocFacet": "Identification.Topic",
          "matchMethod": "name_heuristic",
          "ocValueType": "CodeableConcept"
        },
        {
          "propertyName": "LBORRES",
          "propertyCode": "C70856",
          "propertyDecode": "Observation Result",
          "datatype": "float",
          "isEnabled": true,
          "ocFacet": "Result.Value",
          "matchMethod": "code_match",
          "ocValueType": "Quantity"
        },
        {
          "propertyName": "LBORRESU",
          "propertyCode": "C64567",
          "propertyDecode": "Molarity Unit",
          "datatype": "",
          "isEnabled": true,
          "ocFacet": "Result.Unit",
          "matchMethod": "code_match",
          "ocValueType": "CodeableConcept"
        },
        {
          "propertyName": "LBSPEC",
          "propertyCode": "C70713",
          "propertyDecode": "Biospecimen Type",
          "datatype": "",
          "isEnabled": true,
          "ocFacet": "Specimen",
          "matchMethod": "code_match",
          "ocValueType": "CodeableConcept"
        },
        {
          "propertyName": "LBFAST",
          "propertyCode": "C93566",
          "propertyDecode": "Fasting Status Indicator",
          "datatype": "",
          "isEnabled": true,
          "ocFacet": "CollectionMethod",
          "matchMethod": "name_heuristic",
          "ocValueType": "CodeableConcept"
        }
      ]
    },
    {
      "bcId": "BiomedicalConcept_13",
      "bcName": "Sodium Concentration in Urine",
      "bcCode": "C64809",
      "propertyMappings": [
        {
          "propertyName": "LBTESTCD",
          "propertyCode": "C64809",
          "propertyDecode": "SODIUM",
          "datatype": "",
          "isEnabled": true,
          "ocFacet": "Identification.Topic",
          "matchMethod": "name_heuristic",
          "ocValueType": "CodeableConcept"
        },
        {
          "propertyName": "LBORRES",
          "propertyCode": "C70856",
          "propertyDecode": "Observation Result",
          "datatype": "float",
          "isEnabled": true,
          "ocFacet": "Result.Value",
          "matchMethod": "code_match",
          "ocValueType": "Quantity"
        },
        {
          "propertyName": "LBORRESU",
          "propertyCode": "C64567",
          "propertyDecode": "Molarity Unit",
          "datatype": "",
          "isEnabled": true,
          "ocFacet": "Result.Unit",
          "matchMethod": "code_match",
          "ocValueType": "CodeableConcept"
        },
        {
          "propertyName": "LBSPEC",
          "propertyCode": "C70713",
          "propertyDecode": "Biospecimen Type",
          "datatype": "",
          "isEnabled": true,
          "ocFacet": "Specimen",
          "matchMethod": "code_match",
          "ocValueType": "CodeableConcept"
        },
        {
          "propertyName": "LBFAST",
          "propertyCode": "C93566",
          "propertyDecode": "Fasting Status Indicator",
          "datatype": "",
          "isEnabled": true,
          "ocFacet": "CollectionMethod",
          "matchMethod": "name_heuristic",
          "ocValueType": "CodeableConcept"
        }
      ]
    },
    {
      "bcId": "BiomedicalConcept_14",
      "bcName": "Systolic Blood Pressure",
      "bcCode": "C25298",
      "propertyMappings": [
        {
          "propertyName": "VSTESTCD",
          "propertyCode": "C25298",
          "propertyDecode": "SYSBP",
          "datatype": "",
          "isEnabled": true,
          "ocFacet": "Identification.Topic",
          "matchMethod": "name_heuristic",
          "ocValueType": "CodeableConcept"
        },
        {
          "propertyName": "VSORRES",
          "propertyCode": "C70856",
          "propertyDecode": "Observation Result",
          "datatype": "integer",
          "isEnabled": true,
          "ocFacet": "Result.Value",
          "matchMethod": "code_match",
          "ocValueType": "Quantity"
        },
        {
          "propertyName": "VSORRESU",
          "propertyCode": "C49669",
          "propertyDecode": "Unit of Pressure",
          "datatype": "",
          "isEnabled": true,
          "ocFacet": "Result.Unit",
          "matchMethod": "code_match",
          "ocValueType": "CodeableConcept"
        },
        {
          "propertyName": "VSPOS",
          "propertyCode": "C62164",
          "propertyDecode": "Body Position",
          "datatype": "",
          "isEnabled": true,
          "ocFacet": "BodyPosition",
          "matchMethod": "code_match",
          "ocValueType": "CodeableConcept"
        },
        {
          "propertyName": "VSLOC",
          "propertyCode": "C13717",
          "propertyDecode": "Anatomic Site",
          "datatype": "",
          "isEnabled": true,
          "ocFacet": "Location",
          "matchMethod": "code_match",
          "ocValueType": "CodeableConcept"
        },
        {
          "propertyName": "VSLAT",
          "propertyCode": "C25185",
          "propertyDecode": "Laterality",
          "datatype": "",
          "isEnabled": true,
          "ocFacet": "Location.Laterality",
          "matchMethod": "code_match",
          "ocValueType": "CodeableConcept"
        },
        {
          "propertyName": "VSDTC",
          "propertyCode": "C82515",
          "propertyDecode": "Collection Date Time",
          "datatype": "",
          "isEnabled": true,
          "ocFacet": "Timing.CollectionDateTime",
          "matchMethod": "code_match",
          "ocValueType": "dateTime"
        }
      ]
    },
    {
      "bcId": "BiomedicalConcept_15",
      "bcName": "Diastolic Blood Pressure",
      "bcCode": "C25299",
      "propertyMappings": [
        {
          "propertyName": "VSTESTCD",
          "propertyCode": "C25299",
          "propertyDecode": "DIABP",
          "datatype": "",
          "isEnabled": true,
          "ocFacet": "Identification.Topic",
          "matchMethod": "name_heuristic",
          "ocValueType": "CodeableConcept"
        },
        {
          "propertyName": "VSORRES",
          "propertyCode": "C70856",
          "propertyDecode": "Observation Result",
          "datatype": "integer",
          "isEnabled": true,
          "ocFacet": "Result.Value",
          "matchMethod": "code_match",
          "ocValueType": "Quantity"
        },
        {
          "propertyName": "VSORRESU",
          "propertyCode": "C49669",
          "propertyDecode": "Unit of Pressure",
          "datatype": "",
          "isEnabled": true,
          "ocFacet": "Result.Unit",
          "matchMethod": "code_match",
          "ocValueType": "CodeableConcept"
        },
        {
          "propertyName": "VSPOS",
          "propertyCode": "C62164",
          "propertyDecode": "Body Position",
          "datatype": "",
          "isEnabled": true,
          "ocFacet": "BodyPosition",
          "matchMethod": "code_match",
          "ocValueType": "CodeableConcept"
        },
        {
          "propertyName": "VSLOC",
          "propertyCode": "C13717",
          "propertyDecode": "Anatomic Site",
          "datatype": "",
          "isEnabled": true,
          "ocFacet": "Location",
          "matchMethod": "code_match",
          "ocValueType": "CodeableConcept"
        },
        {
          "propertyName": "VSLAT",
          "propertyCode": "C25185",
          "propertyDecode": "Laterality",
          "datatype": "",
          "isEnabled": true,
          "ocFacet": "Location.Laterality",
          "matchMethod": "code_match",
          "ocValueType": "CodeableConcept"
        },
        {
          "propertyName": "VSDTC",
          "propertyCode": "C82515",
          "propertyDecode": "Collection Date Time",
          "datatype": "",
          "isEnabled": true,
          "ocFacet": "Timing.CollectionDateTime",
          "matchMethod": "code_match",
          "ocValueType": "dateTime"
        }
      ]
    },
    {
      "bcId": "BiomedicalConcept_16",
      "bcName": "Heart Rate",
      "bcCode": "C49677",
      "propertyMappings": [
        {
          "propertyName": "VSTESTCD",
          "propertyCode": "C49677",
          "propertyDecode": "HR",
          "datatype": "",
          "isEnabled": true,
          "ocFacet": "Identification.Topic",
          "matchMethod": "name_heuristic",
          "ocValueType": "CodeableConcept"
        },
        {
          "propertyName": "VSORRES",
          "propertyCode": "C70856",
          "propertyDecode": "Observation Result",
          "datatype": "integer",
          "isEnabled": true,
          "ocFacet": "Result.Value",
          "matchMethod": "code_match",
          "ocValueType": "Quantity"
        },
        {
          "propertyName": "VSORRESU",
          "propertyCode": "C73688",
          "propertyDecode": "Count per Minute",
          "datatype": "",
          "isEnabled": true,
          "ocFacet": "Result.Unit",
          "matchMethod": "code_match",
          "ocValueType": "CodeableConcept"
        },
        {
          "propertyName": "VSPOS",
          "propertyCode": "C62164",
          "propertyDecode": "Body Position",
          "datatype": "",
          "isEnabled": true,
          "ocFacet": "BodyPosition",
          "matchMethod": "code_match",
          "ocValueType": "CodeableConcept"
        },
        {
          "propertyName": "VSLOC",
          "propertyCode": "C13717",
          "propertyDecode": "Anatomic Site",
          "datatype": "",
          "isEnabled": true,
          "ocFacet": "Location",
          "matchMethod": "code_match",
          "ocValueType": "CodeableConcept"
        },
        {
          "propertyName": "VSLAT",
          "propertyCode": "C25185",
          "propertyDecode": "Laterality",
          "datatype": "",
          "isEnabled": true,
          "ocFacet": "Location.Laterality",
          "matchMethod": "code_match",
          "ocValueType": "CodeableConcept"
        },
        {
          "propertyName": "VSDTC",
          "propertyCode": "C82515",
          "propertyDecode": "Collection Date Time",
          "datatype": "",
          "isEnabled": true,
          "ocFacet": "Timing.CollectionDateTime",
          "matchMethod": "code_match",
          "ocValueType": "dateTime"
        }
      ]
    },
    {
      "bcId": "BiomedicalConcept_17",
      "bcName": "Systolic Blood Pressure",
      "bcCode": "C25298",
      "propertyMappings": [
        {
          "propertyName": "VSTESTCD",
          "propertyCode": "C25298",
          "propertyDecode": "SYSBP",
          "datatype": "",
          "isEnabled": true,
          "ocFacet": "Identification.Topic",
          "matchMethod": "name_heuristic",
          "ocValueType": "CodeableConcept"
        },
        {
          "propertyName": "VSORRES",
          "propertyCode": "C70856",
          "propertyDecode": "Observation Result",
          "datatype": "integer",
          "isEnabled": true,
          "ocFacet": "Result.Value",
          "matchMethod": "code_match",
          "ocValueType": "Quantity"
        },
        {
          "propertyName": "VSORRESU",
          "propertyCode": "C49669",
          "propertyDecode": "Unit of Pressure",
          "datatype": "",
          "isEnabled": true,
          "ocFacet": "Result.Unit",
          "matchMethod": "code_match",
          "ocValueType": "CodeableConcept"
        },
        {
          "propertyName": "VSPOS",
          "propertyCode": "C62164",
          "propertyDecode": "Body Position",
          "datatype": "",
          "isEnabled": true,
          "ocFacet": "BodyPosition",
          "matchMethod": "code_match",
          "ocValueType": "CodeableConcept"
        },
        {
          "propertyName": "VSLOC",
          "propertyCode": "C13717",
          "propertyDecode": "Anatomic Site",
          "datatype": "",
          "isEnabled": true,
          "ocFacet": "Location",
          "matchMethod": "code_match",
          "ocValueType": "CodeableConcept"
        },
        {
          "propertyName": "VSLAT",
          "propertyCode": "C25185",
          "propertyDecode": "Laterality",
          "datatype": "",
          "isEnabled": true,
          "ocFacet": "Location.Laterality",
          "matchMethod": "code_match",
          "ocValueType": "CodeableConcept"
        },
        {
          "propertyName": "VSDTC",
          "propertyCode": "C82515",
          "propertyDecode": "Collection Date Time",
          "datatype": "",
          "isEnabled": true,
          "ocFacet": "Timing.CollectionDateTime",
          "matchMethod": "code_match",
          "ocValueType": "dateTime"
        }
      ]
    },
    {
      "bcId": "BiomedicalConcept_18",
      "bcName": "Diastolic Blood Pressure",
      "bcCode": "C25299",
      "propertyMappings": [
        {
          "propertyName": "VSTESTCD",
          "propertyCode": "C25299",
          "propertyDecode": "DIABP",
          "datatype": "",
          "isEnabled": true,
          "ocFacet": "Identification.Topic",
          "matchMethod": "name_heuristic",
          "ocValueType": "CodeableConcept"
        },
        {
          "propertyName": "VSORRES",
          "propertyCode": "C70856",
          "propertyDecode": "Observation Result",
          "datatype": "integer",
          "isEnabled": true,
          "ocFacet": "Result.Value",
          "matchMethod": "code_match",
          "ocValueType": "Quantity"
        },
        {
          "propertyName": "VSORRESU",
          "propertyCode": "C49669",
          "propertyDecode": "Unit of Pressure",
          "datatype": "",
          "isEnabled": true,
          "ocFacet": "Result.Unit",
          "matchMethod": "code_match",
          "ocValueType": "CodeableConcept"
        },
        {
          "propertyName": "VSPOS",
          "propertyCode": "C62164",
          "propertyDecode": "Body Position",
          "datatype": "",
          "isEnabled": true,
          "ocFacet": "BodyPosition",
          "matchMethod": "code_match",
          "ocValueType": "CodeableConcept"
        },
        {
          "propertyName": "VSLOC",
          "propertyCode": "C13717",
          "propertyDecode": "Anatomic Site",
          "datatype": "",
          "isEnabled": true,
          "ocFacet": "Location",
          "matchMethod": "code_match",
          "ocValueType": "CodeableConcept"
        },
        {
          "propertyName": "VSLAT",
          "propertyCode": "C25185",
          "propertyDecode": "Laterality",
          "datatype": "",
          "isEnabled": true,
          "ocFacet": "Location.Laterality",
          "matchMethod": "code_match",
          "ocValueType": "CodeableConcept"
        },
        {
          "propertyName": "VSDTC",
          "propertyCode": "C82515",
          "propertyDecode": "Collection Date Time",
          "datatype": "",
          "isEnabled": true,
          "ocFacet": "Timing.CollectionDateTime",
          "matchMethod": "code_match",
          "ocValueType": "dateTime"
        }
      ]
    },
    {
      "bcId": "BiomedicalConcept_19",
      "bcName": "Heart Rate",
      "bcCode": "C49677",
      "propertyMappings": [
        {
          "propertyName": "VSTESTCD",
          "propertyCode": "C49677",
          "propertyDecode": "HR",
          "datatype": "",
          "isEnabled": true,
          "ocFacet": "Identification.Topic",
          "matchMethod": "name_heuristic",
          "ocValueType": "CodeableConcept"
        },
        {
          "propertyName": "VSORRES",
          "propertyCode": "C70856",
          "propertyDecode": "Observation Result",
          "datatype": "integer",
          "isEnabled": true,
          "ocFacet": "Result.Value",
          "matchMethod": "code_match",
          "ocValueType": "Quantity"
        },
        {
          "propertyName": "VSORRESU",
          "propertyCode": "C73688",
          "propertyDecode": "Count per Minute",
          "datatype": "",
          "isEnabled": true,
          "ocFacet": "Result.Unit",
          "matchMethod": "code_match",
          "ocValueType": "CodeableConcept"
        },
        {
          "propertyName": "VSPOS",
          "propertyCode": "C62164",
          "propertyDecode": "Body Position",
          "datatype": "",
          "isEnabled": true,
          "ocFacet": "BodyPosition",
          "matchMethod": "code_match",
          "ocValueType": "CodeableConcept"
        },
        {
          "propertyName": "VSLOC",
          "propertyCode": "C13717",
          "propertyDecode": "Anatomic Site",
          "datatype": "",
          "isEnabled": true,
          "ocFacet": "Location",
          "matchMethod": "code_match",
          "ocValueType": "CodeableConcept"
        },
        {
          "propertyName": "VSLAT",
          "propertyCode": "C25185",
          "propertyDecode": "Laterality",
          "datatype": "",
          "isEnabled": true,
          "ocFacet": "Location.Laterality",
          "matchMethod": "code_match",
          "ocValueType": "CodeableConcept"
        },
        {
          "propertyName": "VSDTC",
          "propertyCode": "C82515",
          "propertyDecode": "Collection Date Time",
          "datatype": "",
          "isEnabled": true,
          "ocFacet": "Timing.CollectionDateTime",
          "matchMethod": "code_match",
          "ocValueType": "dateTime"
        }
      ]
    },
    {
      "bcId": "BiomedicalConcept_200",
      "bcName": "Informed Consent",
      "bcCode": "C16735",
      "propertyMappings": [
        {
          "propertyName": "DSCAT",
          "propertyCode": "C25372",
          "propertyDecode": "DSCAT",
          "datatype": "text",
          "isEnabled": null,
          "ocFacet": "Identification.ObservationCategory",
          "matchMethod": "name_heuristic",
          "ocValueType": "CodeableConcept"
        },
        {
          "propertyName": "DSDECOD",
          "propertyCode": "C82977",
          "propertyDecode": "DSDECOD",
          "datatype": "text",
          "isEnabled": null,
          "ocFacet": "Identification.Topic.DictionaryCoding",
          "matchMethod": "name_heuristic",
          "ocValueType": "CodeableConcept"
        },
        {
          "propertyName": "DSTERM",
          "propertyCode": "C82571",
          "propertyDecode": "DSTERM",
          "datatype": "text",
          "isEnabled": null,
          "ocFacet": "Identification.Topic",
          "matchMethod": "name_heuristic",
          "ocValueType": "CodeableConcept"
        },
        {
          "propertyName": "DSSTDTC",
          "propertyCode": "C82517",
          "propertyDecode": "DSSTDTC",
          "datatype": "datetime",
          "isEnabled": null,
          "ocFacet": "Timing.StartDate",
          "matchMethod": "name_heuristic",
          "ocValueType": "dateTime"
        }
      ]
    },
    {
      "bcId": "BiomedicalConcept_201",
      "bcName": "Inclusion Criteria",
      "bcCode": "C25532",
      "propertyMappings": [
        {
          "propertyName": "IETESTCD",
          "propertyCode": "",
          "propertyDecode": "IETESTCD",
          "datatype": "",
          "isEnabled": null,
          "ocFacet": "Identification.Topic",
          "matchMethod": "name_heuristic",
          "ocValueType": "CodeableConcept"
        },
        {
          "propertyName": "IETEST",
          "propertyCode": "",
          "propertyDecode": "IETEST",
          "datatype": "",
          "isEnabled": null,
          "ocFacet": "Identification.Topic",
          "matchMethod": "name_heuristic_v2",
          "ocValueType": "CodeableConcept"
        },
        {
          "propertyName": "TIVERS",
          "propertyCode": "C83444",
          "propertyDecode": "TIVERS",
          "datatype": "",
          "isEnabled": null,
          "ocFacet": "Identification.Topic",
          "matchMethod": "name_heuristic",
          "ocValueType": "CodeableConcept"
        },
        {
          "propertyName": "IECAT",
          "propertyCode": "C25372",
          "propertyDecode": "IECAT",
          "datatype": "",
          "isEnabled": null,
          "ocFacet": "Identification.ObservationCategory",
          "matchMethod": "name_heuristic",
          "ocValueType": "CodeableConcept"
        },
        {
          "propertyName": "IEORRES",
          "propertyCode": "C181043",
          "propertyDecode": "IEORRES",
          "datatype": "text",
          "isEnabled": null,
          "ocFacet": "Result.Value",
          "matchMethod": "name_heuristic",
          "ocValueType": "CodeableConcept"
        },
        {
          "propertyName": "IESTRESC",
          "propertyCode": "C181043",
          "propertyDecode": "IESTRESC",
          "datatype": "text",
          "isEnabled": null,
          "ocFacet": "Result.Value",
          "matchMethod": "name_heuristic",
          "ocValueType": "CodeableConcept"
        },
        {
          "propertyName": "IEDTC",
          "propertyCode": "C82515",
          "propertyDecode": "IEDTC",
          "datatype": "",
          "isEnabled": null,
          "ocFacet": "Timing.CollectionDateTime",
          "matchMethod": "code_match",
          "ocValueType": "dateTime"
        }
      ]
    },
    {
      "bcId": "BiomedicalConcept_203",
      "bcName": "Exclusion Criteria",
      "bcCode": "C25370",
      "propertyMappings": [
        {
          "propertyName": "IETESTCD",
          "propertyCode": "",
          "propertyDecode": "IETESTCD",
          "datatype": "",
          "isEnabled": null,
          "ocFacet": "Identification.Topic",
          "matchMethod": "name_heuristic",
          "ocValueType": "CodeableConcept"
        },
        {
          "propertyName": "IETEST",
          "propertyCode": "",
          "propertyDecode": "IETEST",
          "datatype": "",
          "isEnabled": null,
          "ocFacet": "Identification.Topic",
          "matchMethod": "name_heuristic_v2",
          "ocValueType": "CodeableConcept"
        },
        {
          "propertyName": "TIVERS",
          "propertyCode": "C83444",
          "propertyDecode": "TIVERS",
          "datatype": "",
          "isEnabled": null,
          "ocFacet": "Identification.Topic",
          "matchMethod": "name_heuristic",
          "ocValueType": "CodeableConcept"
        },
        {
          "propertyName": "IECAT",
          "propertyCode": "C25372",
          "propertyDecode": "IECAT",
          "datatype": "",
          "isEnabled": null,
          "ocFacet": "Identification.ObservationCategory",
          "matchMethod": "name_heuristic",
          "ocValueType": "CodeableConcept"
        },
        {
          "propertyName": "IEORRES",
          "propertyCode": "C181043",
          "propertyDecode": "IEORRES",
          "datatype": "text",
          "isEnabled": null,
          "ocFacet": "Result.Value",
          "matchMethod": "name_heuristic",
          "ocValueType": "CodeableConcept"
        },
        {
          "propertyName": "IESTRESC",
          "propertyCode": "C181043",
          "propertyDecode": "IESTRESC",
          "datatype": "text",
          "isEnabled": null,
          "ocFacet": "Result.Value",
          "matchMethod": "name_heuristic",
          "ocValueType": "CodeableConcept"
        },
        {
          "propertyName": "IEDTC",
          "propertyCode": "C82515",
          "propertyDecode": "IEDTC",
          "datatype": "",
          "isEnabled": null,
          "ocFacet": "Timing.CollectionDateTime",
          "matchMethod": "code_match",
          "ocValueType": "dateTime"
        }
      ]
    },
    {
      "bcId": "BiomedicalConcept_204",
      "bcName": "Subject is Randomized",
      "bcCode": "C114209",
      "propertyMappings": [
        {
          "propertyName": "DSCAT",
          "propertyCode": "C25372",
          "propertyDecode": "DSCAT",
          "datatype": "",
          "isEnabled": null,
          "ocFacet": "Identification.ObservationCategory",
          "matchMethod": "name_heuristic",
          "ocValueType": "CodeableConcept"
        },
        {
          "propertyName": "DSDECOD",
          "propertyCode": "C82977",
          "propertyDecode": "DSDECOD",
          "datatype": "text",
          "isEnabled": null,
          "ocFacet": "Identification.Topic.DictionaryCoding",
          "matchMethod": "name_heuristic",
          "ocValueType": "CodeableConcept"
        },
        {
          "propertyName": "DSTERM",
          "propertyCode": "C82571",
          "propertyDecode": "DSTERM",
          "datatype": "text",
          "isEnabled": null,
          "ocFacet": "Identification.Topic",
          "matchMethod": "name_heuristic",
          "ocValueType": "CodeableConcept"
        },
        {
          "propertyName": "DSSTDTC",
          "propertyCode": "C82517",
          "propertyDecode": "DSSTDTC",
          "datatype": "datetime",
          "isEnabled": null,
          "ocFacet": "Timing.StartDate",
          "matchMethod": "name_heuristic",
          "ocValueType": "dateTime"
        }
      ]
    },
    {
      "bcId": "BiomedicalConcept_205",
      "bcName": "Ethnic Group",
      "bcCode": "C16564",
      "propertyMappings": [
        {
          "propertyName": "ETHNIC",
          "propertyCode": "C16564",
          "propertyDecode": "ETHNIC",
          "datatype": "text",
          "isEnabled": null,
          "ocFacet": "Identification.Topic",
          "matchMethod": "code_fix",
          "ocValueType": "CodeableConcept"
        },
        {
          "propertyName": "DMDTC",
          "propertyCode": "C82515",
          "propertyDecode": "DMDTC",
          "datatype": "datetime",
          "isEnabled": null,
          "ocFacet": "Timing.CollectionDateTime",
          "matchMethod": "code_match",
          "ocValueType": "dateTime"
        }
      ]
    },
    {
      "bcId": "BiomedicalConcept_206",
      "bcName": "Subject Age",
      "bcCode": "C69260",
      "propertyMappings": [
        {
          "propertyName": "AGE",
          "propertyCode": "C170981",
          "propertyDecode": "AGE",
          "datatype": "float",
          "isEnabled": null,
          "ocFacet": "Result.Value",
          "matchMethod": "code_fix",
          "ocValueType": "Quantity"
        },
        {
          "propertyName": "AGEU",
          "propertyCode": "C50400",
          "propertyDecode": "AGEU",
          "datatype": "text",
          "isEnabled": null,
          "ocFacet": "Result.Unit",
          "matchMethod": "code_match",
          "ocValueType": "CodeableConcept"
        },
        {
          "propertyName": "DMDTC",
          "propertyCode": "C82515",
          "propertyDecode": "DMDTC",
          "datatype": "datetime",
          "isEnabled": null,
          "ocFacet": "Timing.CollectionDateTime",
          "matchMethod": "code_match",
          "ocValueType": "dateTime"
        }
      ]
    },
    {
      "bcId": "BiomedicalConcept_207",
      "bcName": "Birth Date and Time",
      "bcCode": "C83217",
      "propertyMappings": [
        {
          "propertyName": "BRTHDTC",
          "propertyCode": "C82515",
          "propertyDecode": "BRTHDTC",
          "datatype": "datetime",
          "isEnabled": null,
          "ocFacet": "Timing.CollectionDateTime",
          "matchMethod": "code_match",
          "ocValueType": "dateTime"
        },
        {
          "propertyName": "DMDTC",
          "propertyCode": "C82515",
          "propertyDecode": "DMDTC",
          "datatype": "datetime",
          "isEnabled": null,
          "ocFacet": "Timing.CollectionDateTime",
          "matchMethod": "code_match",
          "ocValueType": "dateTime"
        }
      ]
    },
    {
      "bcId": "BiomedicalConcept_208",
      "bcName": "Education Level",
      "bcCode": "C17953",
      "propertyMappings": [
        {
          "propertyName": "SCTESTCD",
          "propertyCode": "",
          "propertyDecode": "SCTESTCD",
          "datatype": "",
          "isEnabled": null,
          "ocFacet": "Identification.Topic",
          "matchMethod": "name_heuristic",
          "ocValueType": "CodeableConcept"
        },
        {
          "propertyName": "SCTEST",
          "propertyCode": "",
          "propertyDecode": "SCTEST",
          "datatype": "",
          "isEnabled": null,
          "ocFacet": "Identification.Topic",
          "matchMethod": "name_heuristic_v2",
          "ocValueType": "CodeableConcept"
        },
        {
          "propertyName": "SCCAT",
          "propertyCode": "",
          "propertyDecode": "SCCAT",
          "datatype": "",
          "isEnabled": null,
          "ocFacet": "Identification.ObservationCategory",
          "matchMethod": "name_heuristic",
          "ocValueType": "CodeableConcept"
        },
        {
          "propertyName": "SCORRES",
          "propertyCode": "C70856",
          "propertyDecode": "SCORRES",
          "datatype": "text",
          "isEnabled": null,
          "ocFacet": "Result.Value",
          "matchMethod": "code_match",
          "ocValueType": "CodeableConcept"
        },
        {
          "propertyName": "SCSTRESC",
          "propertyCode": "C70856",
          "propertyDecode": "SCSTRESC",
          "datatype": "text",
          "isEnabled": null,
          "ocFacet": "Result.Value",
          "matchMethod": "code_match",
          "ocValueType": "CodeableConcept"
        },
        {
          "propertyName": "SCSTRESN",
          "propertyCode": "C70856",
          "propertyDecode": "SCSTRESN",
          "datatype": "text",
          "isEnabled": null,
          "ocFacet": "Result.Value",
          "matchMethod": "code_match",
          "ocValueType": "CodeableConcept"
        },
        {
          "propertyName": "SCDTC",
          "propertyCode": "C82515",
          "propertyDecode": "SCDTC",
          "datatype": "",
          "isEnabled": null,
          "ocFacet": "Timing.CollectionDateTime",
          "matchMethod": "code_match",
          "ocValueType": "dateTime"
        }
      ]
    },
    {
      "bcId": "BiomedicalConcept_209",
      "bcName": "Number of Years of Education",
      "bcCode": "C122393",
      "propertyMappings": [
        {
          "propertyName": "SCTESTCD",
          "propertyCode": "",
          "propertyDecode": "SCTESTCD",
          "datatype": "",
          "isEnabled": null,
          "ocFacet": "Identification.Topic",
          "matchMethod": "name_heuristic",
          "ocValueType": "CodeableConcept"
        },
        {
          "propertyName": "SCTEST",
          "propertyCode": "",
          "propertyDecode": "SCTEST",
          "datatype": "",
          "isEnabled": null,
          "ocFacet": "Identification.Topic",
          "matchMethod": "name_heuristic_v2",
          "ocValueType": "CodeableConcept"
        },
        {
          "propertyName": "SCCAT",
          "propertyCode": "",
          "propertyDecode": "SCCAT",
          "datatype": "",
          "isEnabled": null,
          "ocFacet": "Identification.ObservationCategory",
          "matchMethod": "name_heuristic",
          "ocValueType": "CodeableConcept"
        },
        {
          "propertyName": "SCORRES",
          "propertyCode": "C70856",
          "propertyDecode": "SCORRES",
          "datatype": "float",
          "isEnabled": null,
          "ocFacet": "Result.Value",
          "matchMethod": "code_match",
          "ocValueType": "Quantity"
        },
        {
          "propertyName": "SCORRESU",
          "propertyCode": "C42574",
          "propertyDecode": "SCORRESU",
          "datatype": "",
          "isEnabled": null,
          "ocFacet": "Result.Unit",
          "matchMethod": "code_match",
          "ocValueType": "CodeableConcept"
        },
        {
          "propertyName": "SCSTRESC",
          "propertyCode": "C70856",
          "propertyDecode": "SCSTRESC",
          "datatype": "float",
          "isEnabled": null,
          "ocFacet": "Result.Value",
          "matchMethod": "code_match",
          "ocValueType": "Quantity"
        },
        {
          "propertyName": "SCSTRESN",
          "propertyCode": "C70856",
          "propertyDecode": "SCSTRESN",
          "datatype": "float",
          "isEnabled": null,
          "ocFacet": "Result.Value",
          "matchMethod": "code_match",
          "ocValueType": "Quantity"
        },
        {
          "propertyName": "SCSTRESU",
          "propertyCode": "C42574",
          "propertyDecode": "SCSTRESU",
          "datatype": "",
          "isEnabled": null,
          "ocFacet": "Result.Unit",
          "matchMethod": "code_match",
          "ocValueType": "CodeableConcept"
        },
        {
          "propertyName": "SCDTC",
          "propertyCode": "C82515",
          "propertyDecode": "SCDTC",
          "datatype": "",
          "isEnabled": null,
          "ocFacet": "Timing.CollectionDateTime",
          "matchMethod": "code_match",
          "ocValueType": "dateTime"
        }
      ]
    },
    {
      "bcId": "BiomedicalConcept_211",
      "bcName": "Solicited Medical History",
      "bcCode": "C200145",
      "propertyMappings": [
        {
          "propertyName": "MHTERM",
          "propertyCode": "C83118",
          "propertyDecode": "MHTERM",
          "datatype": "text",
          "isEnabled": null,
          "ocFacet": "Identification.Topic",
          "matchMethod": "name_heuristic",
          "ocValueType": "CodeableConcept"
        },
        {
          "propertyName": "MHDECOD",
          "propertyCode": "C83346",
          "propertyDecode": "MHDECOD",
          "datatype": "text",
          "isEnabled": null,
          "ocFacet": "Identification.Topic.DictionaryCoding",
          "matchMethod": "name_heuristic",
          "ocValueType": "CodeableConcept"
        },
        {
          "propertyName": "MHCAT",
          "propertyCode": "C25372",
          "propertyDecode": "MHCAT",
          "datatype": "text",
          "isEnabled": null,
          "ocFacet": "Identification.ObservationCategory",
          "matchMethod": "name_heuristic",
          "ocValueType": "CodeableConcept"
        },
        {
          "propertyName": "MHSCAT",
          "propertyCode": "C25692",
          "propertyDecode": "MHSCAT",
          "datatype": "text",
          "isEnabled": null,
          "ocFacet": "Identification.ObservationCategory",
          "matchMethod": "name_heuristic",
          "ocValueType": "CodeableConcept"
        },
        {
          "propertyName": "MHSTDTC",
          "propertyCode": "C83338",
          "propertyDecode": "MHSTDTC",
          "datatype": "datetime",
          "isEnabled": null,
          "ocFacet": "Timing.StartDate",
          "matchMethod": "name_heuristic",
          "ocValueType": "dateTime"
        },
        {
          "propertyName": "MHENDTC",
          "propertyCode": "C83330",
          "propertyDecode": "MHENDTC",
          "datatype": "datetime",
          "isEnabled": null,
          "ocFacet": "Timing.EndDate",
          "matchMethod": "name_heuristic",
          "ocValueType": "dateTime"
        },
        {
          "propertyName": "MHENRF",
          "propertyCode": "C82557",
          "propertyDecode": "MHENRF",
          "datatype": "text",
          "isEnabled": null,
          "ocFacet": "EventObservation.qualifier",
          "matchMethod": "name_heuristic",
          "ocValueType": "CodeableConcept"
        },
        {
          "propertyName": "MHENRTPT",
          "propertyCode": "C82558",
          "propertyDecode": "MHENRTPT",
          "datatype": "text",
          "isEnabled": null,
          "ocFacet": "EventObservation.qualifier",
          "matchMethod": "name_heuristic",
          "ocValueType": "CodeableConcept"
        },
        {
          "propertyName": "MHENTPT",
          "propertyCode": "C82574",
          "propertyDecode": "MHENTPT",
          "datatype": "text",
          "isEnabled": null,
          "ocFacet": "EventObservation.qualifier",
          "matchMethod": "name_heuristic",
          "ocValueType": "CodeableConcept"
        }
      ]
    },
    {
      "bcId": "BiomedicalConcept_212",
      "bcName": "Alcohol Use History",
      "bcCode": "C81229",
      "propertyMappings": [
        {
          "propertyName": "SUTRT",
          "propertyCode": "C83092",
          "propertyDecode": "SUTRT",
          "datatype": "text",
          "isEnabled": null,
          "ocFacet": "Identification.Topic",
          "matchMethod": "name_heuristic",
          "ocValueType": "CodeableConcept"
        },
        {
          "propertyName": "SUCAT",
          "propertyCode": "C25372",
          "propertyDecode": "SUCAT",
          "datatype": "text",
          "isEnabled": null,
          "ocFacet": "Identification.ObservationCategory",
          "matchMethod": "name_heuristic",
          "ocValueType": "CodeableConcept"
        },
        {
          "propertyName": "SUSCAT",
          "propertyCode": "C25692",
          "propertyDecode": "SUSCAT",
          "datatype": "text",
          "isEnabled": null,
          "ocFacet": "Identification.ObservationCategory",
          "matchMethod": "name_heuristic",
          "ocValueType": "CodeableConcept"
        },
        {
          "propertyName": "SUPRESP",
          "propertyCode": "C171000",
          "propertyDecode": "SUPRESP",
          "datatype": "text",
          "isEnabled": null,
          "ocFacet": "Identification.Topic",
          "matchMethod": "name_heuristic",
          "ocValueType": "CodeableConcept"
        },
        {
          "propertyName": "SUOCCUR",
          "propertyCode": "C127786",
          "propertyDecode": "SUOCCUR",
          "datatype": "text",
          "isEnabled": null,
          "ocFacet": "Identification.Topic",
          "matchMethod": "name_heuristic",
          "ocValueType": "CodeableConcept"
        },
        {
          "propertyName": "SUDOSE",
          "propertyCode": "C83416",
          "propertyDecode": "SUDOSE",
          "datatype": "float",
          "isEnabled": null,
          "ocFacet": "InterventionObservation.Dose",
          "matchMethod": "name_heuristic",
          "ocValueType": "Quantity"
        },
        {
          "propertyName": "SUDOSTXT",
          "propertyCode": "C83041",
          "propertyDecode": "SUDOSTXT",
          "datatype": "text",
          "isEnabled": null,
          "ocFacet": "InterventionObservation.Dose",
          "matchMethod": "name_heuristic",
          "ocValueType": "CodeableConcept"
        },
        {
          "propertyName": "SUDOSU",
          "propertyCode": "C83038",
          "propertyDecode": "SUDOSU",
          "datatype": "text",
          "isEnabled": null,
          "ocFacet": "Result.Unit",
          "matchMethod": "name_heuristic",
          "ocValueType": "CodeableConcept"
        },
        {
          "propertyName": "SUDOSFRQ",
          "propertyCode": "C83044",
          "propertyDecode": "SUDOSFRQ",
          "datatype": "text",
          "isEnabled": null,
          "ocFacet": "InterventionObservation.Dose",
          "matchMethod": "name_heuristic",
          "ocValueType": "CodeableConcept"
        },
        {
          "propertyName": "SUSTDTC",
          "propertyCode": "C83431",
          "propertyDecode": "SUSTDTC",
          "datatype": "datetime",
          "isEnabled": null,
          "ocFacet": "Timing.StartDate",
          "matchMethod": "name_heuristic",
          "ocValueType": "dateTime"
        },
        {
          "propertyName": "SUENDTC",
          "propertyCode": "C83419",
          "propertyDecode": "SUENDTC",
          "datatype": "datetime",
          "isEnabled": null,
          "ocFacet": "Timing.EndDate",
          "matchMethod": "name_heuristic",
          "ocValueType": "dateTime"
        },
        {
          "propertyName": "SUSTRF",
          "propertyCode": "C82559",
          "propertyDecode": "SUSTRF",
          "datatype": "text",
          "isEnabled": null,
          "ocFacet": "EventObservation.qualifier",
          "matchMethod": "name_heuristic",
          "ocValueType": "CodeableConcept"
        },
        {
          "propertyName": "SUSTRTPT",
          "propertyCode": "C82560",
          "propertyDecode": "SUSTRTPT",
          "datatype": "text",
          "isEnabled": null,
          "ocFacet": "EventObservation.qualifier",
          "matchMethod": "name_heuristic",
          "ocValueType": "CodeableConcept"
        },
        {
          "propertyName": "SUSTTPT",
          "propertyCode": "C82575",
          "propertyDecode": "SUSTTPT",
          "datatype": "text",
          "isEnabled": null,
          "ocFacet": "EventObservation.qualifier",
          "matchMethod": "name_heuristic",
          "ocValueType": "CodeableConcept"
        },
        {
          "propertyName": "SUENRF",
          "propertyCode": "C82557",
          "propertyDecode": "SUENRF",
          "datatype": "text",
          "isEnabled": null,
          "ocFacet": "EventObservation.qualifier",
          "matchMethod": "name_heuristic",
          "ocValueType": "CodeableConcept"
        },
        {
          "propertyName": "SUENRTPT",
          "propertyCode": "C82558",
          "propertyDecode": "SUENRTPT",
          "datatype": "text",
          "isEnabled": null,
          "ocFacet": "EventObservation.qualifier",
          "matchMethod": "name_heuristic",
          "ocValueType": "CodeableConcept"
        },
        {
          "propertyName": "SUENTPT",
          "propertyCode": "C82574",
          "propertyDecode": "SUENTPT",
          "datatype": "text",
          "isEnabled": null,
          "ocFacet": "EventObservation.qualifier",
          "matchMethod": "name_heuristic",
          "ocValueType": "CodeableConcept"
        }
      ]
    },
    {
      "bcId": "BiomedicalConcept_213",
      "bcName": "Caffeine Use History",
      "bcCode": "C201990",
      "propertyMappings": [
        {
          "propertyName": "SUTRT",
          "propertyCode": "C83092",
          "propertyDecode": "SUTRT",
          "datatype": "text",
          "isEnabled": null,
          "ocFacet": "Identification.Topic",
          "matchMethod": "name_heuristic",
          "ocValueType": "CodeableConcept"
        },
        {
          "propertyName": "SUCAT",
          "propertyCode": "C25372",
          "propertyDecode": "SUCAT",
          "datatype": "text",
          "isEnabled": null,
          "ocFacet": "Identification.ObservationCategory",
          "matchMethod": "name_heuristic",
          "ocValueType": "CodeableConcept"
        },
        {
          "propertyName": "SUSCAT",
          "propertyCode": "C25692",
          "propertyDecode": "SUSCAT",
          "datatype": "text",
          "isEnabled": null,
          "ocFacet": "Identification.ObservationCategory",
          "matchMethod": "name_heuristic",
          "ocValueType": "CodeableConcept"
        },
        {
          "propertyName": "SUPRESP",
          "propertyCode": "C171000",
          "propertyDecode": "SUPRESP",
          "datatype": "text",
          "isEnabled": null,
          "ocFacet": "Identification.Topic",
          "matchMethod": "name_heuristic",
          "ocValueType": "CodeableConcept"
        },
        {
          "propertyName": "SUOCCUR",
          "propertyCode": "C127786",
          "propertyDecode": "SUOCCUR",
          "datatype": "text",
          "isEnabled": null,
          "ocFacet": "Identification.Topic",
          "matchMethod": "name_heuristic",
          "ocValueType": "CodeableConcept"
        },
        {
          "propertyName": "SUDOSE",
          "propertyCode": "C83416",
          "propertyDecode": "SUDOSE",
          "datatype": "float",
          "isEnabled": null,
          "ocFacet": "InterventionObservation.Dose",
          "matchMethod": "name_heuristic",
          "ocValueType": "Quantity"
        },
        {
          "propertyName": "SUDOSTXT",
          "propertyCode": "C83041",
          "propertyDecode": "SUDOSTXT",
          "datatype": "text",
          "isEnabled": null,
          "ocFacet": "InterventionObservation.Dose",
          "matchMethod": "name_heuristic",
          "ocValueType": "CodeableConcept"
        },
        {
          "propertyName": "SUDOSU",
          "propertyCode": "C83038",
          "propertyDecode": "SUDOSU",
          "datatype": "text",
          "isEnabled": null,
          "ocFacet": "Result.Unit",
          "matchMethod": "name_heuristic",
          "ocValueType": "CodeableConcept"
        },
        {
          "propertyName": "SUDOSFRQ",
          "propertyCode": "C83044",
          "propertyDecode": "SUDOSFRQ",
          "datatype": "text",
          "isEnabled": null,
          "ocFacet": "InterventionObservation.Dose",
          "matchMethod": "name_heuristic",
          "ocValueType": "CodeableConcept"
        },
        {
          "propertyName": "SUSTDTC",
          "propertyCode": "C83431",
          "propertyDecode": "SUSTDTC",
          "datatype": "datetime",
          "isEnabled": null,
          "ocFacet": "Timing.StartDate",
          "matchMethod": "name_heuristic",
          "ocValueType": "dateTime"
        },
        {
          "propertyName": "SUENDTC",
          "propertyCode": "C83419",
          "propertyDecode": "SUENDTC",
          "datatype": "datetime",
          "isEnabled": null,
          "ocFacet": "Timing.EndDate",
          "matchMethod": "name_heuristic",
          "ocValueType": "dateTime"
        },
        {
          "propertyName": "SUSTRF",
          "propertyCode": "C82559",
          "propertyDecode": "SUSTRF",
          "datatype": "text",
          "isEnabled": null,
          "ocFacet": "EventObservation.qualifier",
          "matchMethod": "name_heuristic",
          "ocValueType": "CodeableConcept"
        },
        {
          "propertyName": "SUSTRTPT",
          "propertyCode": "C82560",
          "propertyDecode": "SUSTRTPT",
          "datatype": "text",
          "isEnabled": null,
          "ocFacet": "EventObservation.qualifier",
          "matchMethod": "name_heuristic",
          "ocValueType": "CodeableConcept"
        },
        {
          "propertyName": "SUSTTPT",
          "propertyCode": "C82575",
          "propertyDecode": "SUSTTPT",
          "datatype": "text",
          "isEnabled": null,
          "ocFacet": "EventObservation.qualifier",
          "matchMethod": "name_heuristic",
          "ocValueType": "CodeableConcept"
        },
        {
          "propertyName": "SUENRF",
          "propertyCode": "C82557",
          "propertyDecode": "SUENRF",
          "datatype": "text",
          "isEnabled": null,
          "ocFacet": "EventObservation.qualifier",
          "matchMethod": "name_heuristic",
          "ocValueType": "CodeableConcept"
        },
        {
          "propertyName": "SUENRTPT",
          "propertyCode": "C82558",
          "propertyDecode": "SUENRTPT",
          "datatype": "text",
          "isEnabled": null,
          "ocFacet": "EventObservation.qualifier",
          "matchMethod": "name_heuristic",
          "ocValueType": "CodeableConcept"
        },
        {
          "propertyName": "SUENTPT",
          "propertyCode": "C82574",
          "propertyDecode": "SUENTPT",
          "datatype": "text",
          "isEnabled": null,
          "ocFacet": "EventObservation.qualifier",
          "matchMethod": "name_heuristic",
          "ocValueType": "CodeableConcept"
        }
      ]
    },
    {
      "bcId": "BiomedicalConcept_214",
      "bcName": "History of Tobacco Use",
      "bcCode": "C181760",
      "propertyMappings": [
        {
          "propertyName": "SUTRT",
          "propertyCode": "C83092",
          "propertyDecode": "SUTRT",
          "datatype": "text",
          "isEnabled": null,
          "ocFacet": "Identification.Topic",
          "matchMethod": "name_heuristic",
          "ocValueType": "CodeableConcept"
        },
        {
          "propertyName": "SUCAT",
          "propertyCode": "C25372",
          "propertyDecode": "SUCAT",
          "datatype": "text",
          "isEnabled": null,
          "ocFacet": "Identification.ObservationCategory",
          "matchMethod": "name_heuristic",
          "ocValueType": "CodeableConcept"
        },
        {
          "propertyName": "SUSCAT",
          "propertyCode": "C25692",
          "propertyDecode": "SUSCAT",
          "datatype": "text",
          "isEnabled": null,
          "ocFacet": "Identification.ObservationCategory",
          "matchMethod": "name_heuristic",
          "ocValueType": "CodeableConcept"
        },
        {
          "propertyName": "SUPRESP",
          "propertyCode": "C171000",
          "propertyDecode": "SUPRESP",
          "datatype": "text",
          "isEnabled": null,
          "ocFacet": "Identification.Topic",
          "matchMethod": "name_heuristic",
          "ocValueType": "CodeableConcept"
        },
        {
          "propertyName": "SUOCCUR",
          "propertyCode": "C127786",
          "propertyDecode": "SUOCCUR",
          "datatype": "text",
          "isEnabled": null,
          "ocFacet": "Identification.Topic",
          "matchMethod": "name_heuristic",
          "ocValueType": "CodeableConcept"
        },
        {
          "propertyName": "SUDOSE",
          "propertyCode": "C83416",
          "propertyDecode": "SUDOSE",
          "datatype": "float",
          "isEnabled": null,
          "ocFacet": "InterventionObservation.Dose",
          "matchMethod": "name_heuristic",
          "ocValueType": "Quantity"
        },
        {
          "propertyName": "SUDOSTXT",
          "propertyCode": "C83041",
          "propertyDecode": "SUDOSTXT",
          "datatype": "text",
          "isEnabled": null,
          "ocFacet": "InterventionObservation.Dose",
          "matchMethod": "name_heuristic",
          "ocValueType": "CodeableConcept"
        },
        {
          "propertyName": "SUDOSU",
          "propertyCode": "C83038",
          "propertyDecode": "SUDOSU",
          "datatype": "text",
          "isEnabled": null,
          "ocFacet": "Result.Unit",
          "matchMethod": "name_heuristic",
          "ocValueType": "CodeableConcept"
        },
        {
          "propertyName": "SUDOSFRQ",
          "propertyCode": "C83044",
          "propertyDecode": "SUDOSFRQ",
          "datatype": "text",
          "isEnabled": null,
          "ocFacet": "InterventionObservation.Dose",
          "matchMethod": "name_heuristic",
          "ocValueType": "CodeableConcept"
        },
        {
          "propertyName": "SUSTDTC",
          "propertyCode": "C83431",
          "propertyDecode": "SUSTDTC",
          "datatype": "datetime",
          "isEnabled": null,
          "ocFacet": "Timing.StartDate",
          "matchMethod": "name_heuristic",
          "ocValueType": "dateTime"
        },
        {
          "propertyName": "SUENDTC",
          "propertyCode": "C83419",
          "propertyDecode": "SUENDTC",
          "datatype": "datetime",
          "isEnabled": null,
          "ocFacet": "Timing.EndDate",
          "matchMethod": "name_heuristic",
          "ocValueType": "dateTime"
        },
        {
          "propertyName": "SUDUR",
          "propertyCode": "C83419",
          "propertyDecode": "SUDUR",
          "datatype": "durationDatetime",
          "isEnabled": null,
          "ocFacet": "Timing.Duration",
          "matchMethod": "name_heuristic",
          "ocValueType": "Quantity"
        },
        {
          "propertyName": "SUSTRF",
          "propertyCode": "C82559",
          "propertyDecode": "SUSTRF",
          "datatype": "text",
          "isEnabled": null,
          "ocFacet": "EventObservation.qualifier",
          "matchMethod": "name_heuristic",
          "ocValueType": "CodeableConcept"
        },
        {
          "propertyName": "SUSTRTPT",
          "propertyCode": "C82560",
          "propertyDecode": "SUSTRTPT",
          "datatype": "text",
          "isEnabled": null,
          "ocFacet": "EventObservation.qualifier",
          "matchMethod": "name_heuristic",
          "ocValueType": "CodeableConcept"
        },
        {
          "propertyName": "SUSTTPT",
          "propertyCode": "C82575",
          "propertyDecode": "SUSTTPT",
          "datatype": "text",
          "isEnabled": null,
          "ocFacet": "EventObservation.qualifier",
          "matchMethod": "name_heuristic",
          "ocValueType": "CodeableConcept"
        },
        {
          "propertyName": "SUENRF",
          "propertyCode": "C82557",
          "propertyDecode": "SUENRF",
          "datatype": "text",
          "isEnabled": null,
          "ocFacet": "EventObservation.qualifier",
          "matchMethod": "name_heuristic",
          "ocValueType": "CodeableConcept"
        },
        {
          "propertyName": "SUENRTPT",
          "propertyCode": "C82558",
          "propertyDecode": "SUENRTPT",
          "datatype": "text",
          "isEnabled": null,
          "ocFacet": "EventObservation.qualifier",
          "matchMethod": "name_heuristic",
          "ocValueType": "CodeableConcept"
        },
        {
          "propertyName": "SUENTPT",
          "propertyCode": "C82574",
          "propertyDecode": "SUENTPT",
          "datatype": "text",
          "isEnabled": null,
          "ocFacet": "EventObservation.qualifier",
          "matchMethod": "name_heuristic",
          "ocValueType": "CodeableConcept"
        }
      ]
    },
    {
      "bcId": "BiomedicalConcept_215",
      "bcName": "X-Ray Imaging",
      "bcCode": "C38101",
      "propertyMappings": [
        {
          "propertyName": "PRTRT",
          "propertyCode": "C117511",
          "propertyDecode": "PRTRT",
          "datatype": "text",
          "isEnabled": null,
          "ocFacet": "Identification.Topic",
          "matchMethod": "name_heuristic",
          "ocValueType": "CodeableConcept"
        },
        {
          "propertyName": "PRDECOD",
          "propertyCode": "C117512",
          "propertyDecode": "PRDECOD",
          "datatype": "text",
          "isEnabled": null,
          "ocFacet": "Identification.Topic.DictionaryCoding",
          "matchMethod": "name_heuristic",
          "ocValueType": "CodeableConcept"
        },
        {
          "propertyName": "PRCAT",
          "propertyCode": "C25372",
          "propertyDecode": "PRCAT",
          "datatype": "text",
          "isEnabled": null,
          "ocFacet": "Identification.ObservationCategory",
          "matchMethod": "name_heuristic",
          "ocValueType": "CodeableConcept"
        },
        {
          "propertyName": "PRSCAT",
          "propertyCode": "C25692",
          "propertyDecode": "PRSCAT",
          "datatype": "text",
          "isEnabled": null,
          "ocFacet": "Identification.ObservationCategory",
          "matchMethod": "name_heuristic",
          "ocValueType": "CodeableConcept"
        },
        {
          "propertyName": "PRPRESP",
          "propertyCode": "C171000",
          "propertyDecode": "PRPRESP",
          "datatype": "text",
          "isEnabled": null,
          "ocFacet": "Identification.Topic",
          "matchMethod": "name_heuristic",
          "ocValueType": "CodeableConcept"
        },
        {
          "propertyName": "PROCCUR",
          "propertyCode": "C127786",
          "propertyDecode": "PROCCUR",
          "datatype": "text",
          "isEnabled": null,
          "ocFacet": "Identification.Topic",
          "matchMethod": "name_heuristic",
          "ocValueType": "CodeableConcept"
        },
        {
          "propertyName": "PRLOC",
          "propertyCode": "C13717",
          "propertyDecode": "PRLOC",
          "datatype": "text",
          "isEnabled": null,
          "ocFacet": "Location",
          "matchMethod": "code_match",
          "ocValueType": "CodeableConcept"
        },
        {
          "propertyName": "PRSTDTC",
          "propertyCode": "C117529",
          "propertyDecode": "PRSTDTC",
          "datatype": "datetime",
          "isEnabled": null,
          "ocFacet": "Timing.StartDate",
          "matchMethod": "name_heuristic",
          "ocValueType": "dateTime"
        },
        {
          "propertyName": "PRENDTC",
          "propertyCode": "C117530",
          "propertyDecode": "PRENDTC",
          "datatype": "datetime",
          "isEnabled": null,
          "ocFacet": "Timing.EndDate",
          "matchMethod": "name_heuristic",
          "ocValueType": "dateTime"
        }
      ]
    },
    {
      "bcId": "BiomedicalConcept_216",
      "bcName": "Subject is Randomized",
      "bcCode": "C114209",
      "propertyMappings": [
        {
          "propertyName": "DSCAT",
          "propertyCode": "C25372",
          "propertyDecode": "DSCAT",
          "datatype": "",
          "isEnabled": null,
          "ocFacet": "Identification.ObservationCategory",
          "matchMethod": "name_heuristic",
          "ocValueType": "CodeableConcept"
        },
        {
          "propertyName": "DSDECOD",
          "propertyCode": "C82977",
          "propertyDecode": "DSDECOD",
          "datatype": "text",
          "isEnabled": null,
          "ocFacet": "Identification.Topic.DictionaryCoding",
          "matchMethod": "name_heuristic",
          "ocValueType": "CodeableConcept"
        },
        {
          "propertyName": "DSTERM",
          "propertyCode": "C82571",
          "propertyDecode": "DSTERM",
          "datatype": "text",
          "isEnabled": null,
          "ocFacet": "Identification.Topic",
          "matchMethod": "name_heuristic",
          "ocValueType": "CodeableConcept"
        },
        {
          "propertyName": "DSSTDTC",
          "propertyCode": "C82517",
          "propertyDecode": "DSSTDTC",
          "datatype": "datetime",
          "isEnabled": null,
          "ocFacet": "Timing.StartDate",
          "matchMethod": "name_heuristic",
          "ocValueType": "dateTime"
        }
      ]
    },
    {
      "bcId": "BiomedicalConcept_217",
      "bcName": "Body Temperature",
      "bcCode": "C174446",
      "propertyMappings": [
        {
          "propertyName": "VSTESTCD",
          "propertyCode": "",
          "propertyDecode": "VSTESTCD",
          "datatype": "",
          "isEnabled": null,
          "ocFacet": "Identification.Topic",
          "matchMethod": "name_heuristic",
          "ocValueType": "CodeableConcept"
        },
        {
          "propertyName": "VSTEST",
          "propertyCode": "",
          "propertyDecode": "VSTEST",
          "datatype": "",
          "isEnabled": null,
          "ocFacet": "Identification.Topic",
          "matchMethod": "name_heuristic_v2",
          "ocValueType": "CodeableConcept"
        },
        {
          "propertyName": "VSORRES",
          "propertyCode": "C70856",
          "propertyDecode": "VSORRES",
          "datatype": "float",
          "isEnabled": null,
          "ocFacet": "Result.Value",
          "matchMethod": "code_match",
          "ocValueType": "Quantity"
        },
        {
          "propertyName": "VSORRESU",
          "propertyCode": "C44276",
          "propertyDecode": "VSORRESU",
          "datatype": "",
          "isEnabled": null,
          "ocFacet": "Result.Unit",
          "matchMethod": "code_match",
          "ocValueType": "CodeableConcept"
        },
        {
          "propertyName": "VSSTRESC",
          "propertyCode": "C70856",
          "propertyDecode": "VSSTRESC",
          "datatype": "float",
          "isEnabled": null,
          "ocFacet": "Result.Value",
          "matchMethod": "code_match",
          "ocValueType": "Quantity"
        },
        {
          "propertyName": "VSSTRESN",
          "propertyCode": "C70856",
          "propertyDecode": "VSSTRESN",
          "datatype": "float",
          "isEnabled": null,
          "ocFacet": "Result.Value",
          "matchMethod": "code_match",
          "ocValueType": "Quantity"
        },
        {
          "propertyName": "VSSTRESU",
          "propertyCode": "C44276",
          "propertyDecode": "VSSTRESU",
          "datatype": "",
          "isEnabled": null,
          "ocFacet": "Result.Unit",
          "matchMethod": "code_match",
          "ocValueType": "CodeableConcept"
        },
        {
          "propertyName": "VSLOC",
          "propertyCode": "C13717",
          "propertyDecode": "VSLOC",
          "datatype": "",
          "isEnabled": null,
          "ocFacet": "Location",
          "matchMethod": "code_match",
          "ocValueType": "CodeableConcept"
        },
        {
          "propertyName": "VSDTC",
          "propertyCode": "C82515",
          "propertyDecode": "VSDTC",
          "datatype": "",
          "isEnabled": null,
          "ocFacet": "Timing.CollectionDateTime",
          "matchMethod": "code_match",
          "ocValueType": "dateTime"
        }
      ]
    },
    {
      "bcId": "BiomedicalConcept_218",
      "bcName": "Body Weight",
      "bcCode": "C81328",
      "propertyMappings": [
        {
          "propertyName": "VSTESTCD",
          "propertyCode": "",
          "propertyDecode": "VSTESTCD",
          "datatype": "",
          "isEnabled": null,
          "ocFacet": "Identification.Topic",
          "matchMethod": "name_heuristic",
          "ocValueType": "CodeableConcept"
        },
        {
          "propertyName": "VSTEST",
          "propertyCode": "",
          "propertyDecode": "VSTEST",
          "datatype": "",
          "isEnabled": null,
          "ocFacet": "Identification.Topic",
          "matchMethod": "name_heuristic_v2",
          "ocValueType": "CodeableConcept"
        },
        {
          "propertyName": "VSORRES",
          "propertyCode": "C70856",
          "propertyDecode": "VSORRES",
          "datatype": "float",
          "isEnabled": null,
          "ocFacet": "Result.Value",
          "matchMethod": "code_match",
          "ocValueType": "Quantity"
        },
        {
          "propertyName": "VSORRESU",
          "propertyCode": "C48208",
          "propertyDecode": "VSORRESU",
          "datatype": "",
          "isEnabled": null,
          "ocFacet": "Result.Unit",
          "matchMethod": "code_match",
          "ocValueType": "CodeableConcept"
        },
        {
          "propertyName": "VSSTRESC",
          "propertyCode": "C70856",
          "propertyDecode": "VSSTRESC",
          "datatype": "float",
          "isEnabled": null,
          "ocFacet": "Result.Value",
          "matchMethod": "code_match",
          "ocValueType": "Quantity"
        },
        {
          "propertyName": "VSSTRESN",
          "propertyCode": "C70856",
          "propertyDecode": "VSSTRESN",
          "datatype": "float",
          "isEnabled": null,
          "ocFacet": "Result.Value",
          "matchMethod": "code_match",
          "ocValueType": "Quantity"
        },
        {
          "propertyName": "VSSTRESU",
          "propertyCode": "C48208",
          "propertyDecode": "VSSTRESU",
          "datatype": "",
          "isEnabled": null,
          "ocFacet": "Result.Unit",
          "matchMethod": "code_match",
          "ocValueType": "CodeableConcept"
        },
        {
          "propertyName": "VSDTC",
          "propertyCode": "C82515",
          "propertyDecode": "VSDTC",
          "datatype": "",
          "isEnabled": null,
          "ocFacet": "Timing.CollectionDateTime",
          "matchMethod": "code_match",
          "ocValueType": "dateTime"
        }
      ]
    },
    {
      "bcId": "BiomedicalConcept_219",
      "bcName": "Body Height",
      "bcCode": "C164634",
      "propertyMappings": [
        {
          "propertyName": "VSTESTCD",
          "propertyCode": "",
          "propertyDecode": "VSTESTCD",
          "datatype": "",
          "isEnabled": null,
          "ocFacet": "Identification.Topic",
          "matchMethod": "name_heuristic",
          "ocValueType": "CodeableConcept"
        },
        {
          "propertyName": "VSTEST",
          "propertyCode": "",
          "propertyDecode": "VSTEST",
          "datatype": "",
          "isEnabled": null,
          "ocFacet": "Identification.Topic",
          "matchMethod": "name_heuristic_v2",
          "ocValueType": "CodeableConcept"
        },
        {
          "propertyName": "VSORRES",
          "propertyCode": "C70856",
          "propertyDecode": "VSORRES",
          "datatype": "float",
          "isEnabled": null,
          "ocFacet": "Result.Value",
          "matchMethod": "code_match",
          "ocValueType": "Quantity"
        },
        {
          "propertyName": "VSORRESU",
          "propertyCode": "C168688",
          "propertyDecode": "VSORRESU",
          "datatype": "",
          "isEnabled": null,
          "ocFacet": "Result.Unit",
          "matchMethod": "code_match",
          "ocValueType": "CodeableConcept"
        },
        {
          "propertyName": "VSSTRESC",
          "propertyCode": "C70856",
          "propertyDecode": "VSSTRESC",
          "datatype": "float",
          "isEnabled": null,
          "ocFacet": "Result.Value",
          "matchMethod": "code_match",
          "ocValueType": "Quantity"
        },
        {
          "propertyName": "VSSTRESN",
          "propertyCode": "C70856",
          "propertyDecode": "VSSTRESN",
          "datatype": "float",
          "isEnabled": null,
          "ocFacet": "Result.Value",
          "matchMethod": "code_match",
          "ocValueType": "Quantity"
        },
        {
          "propertyName": "VSSTRESU",
          "propertyCode": "C168688",
          "propertyDecode": "VSSTRESU",
          "datatype": "",
          "isEnabled": null,
          "ocFacet": "Result.Unit",
          "matchMethod": "code_match",
          "ocValueType": "CodeableConcept"
        },
        {
          "propertyName": "VSDTC",
          "propertyCode": "C82515",
          "propertyDecode": "VSDTC",
          "datatype": "",
          "isEnabled": null,
          "ocFacet": "Timing.CollectionDateTime",
          "matchMethod": "code_match",
          "ocValueType": "dateTime"
        }
      ]
    },
    {
      "bcId": "BiomedicalConcept_220",
      "bcName": "Pulse Rate",
      "bcCode": "C49676",
      "propertyMappings": [
        {
          "propertyName": "VSTESTCD",
          "propertyCode": "",
          "propertyDecode": "VSTESTCD",
          "datatype": "",
          "isEnabled": null,
          "ocFacet": "Identification.Topic",
          "matchMethod": "name_heuristic",
          "ocValueType": "CodeableConcept"
        },
        {
          "propertyName": "VSTEST",
          "propertyCode": "",
          "propertyDecode": "VSTEST",
          "datatype": "",
          "isEnabled": null,
          "ocFacet": "Identification.Topic",
          "matchMethod": "name_heuristic_v2",
          "ocValueType": "CodeableConcept"
        },
        {
          "propertyName": "VSORRES",
          "propertyCode": "C70856",
          "propertyDecode": "VSORRES",
          "datatype": "integer",
          "isEnabled": null,
          "ocFacet": "Result.Value",
          "matchMethod": "code_match",
          "ocValueType": "Quantity"
        },
        {
          "propertyName": "VSORRESU",
          "propertyCode": "C73688",
          "propertyDecode": "VSORRESU",
          "datatype": "",
          "isEnabled": null,
          "ocFacet": "Result.Unit",
          "matchMethod": "code_match",
          "ocValueType": "CodeableConcept"
        },
        {
          "propertyName": "VSSTRESC",
          "propertyCode": "C70856",
          "propertyDecode": "VSSTRESC",
          "datatype": "integer",
          "isEnabled": null,
          "ocFacet": "Result.Value",
          "matchMethod": "code_match",
          "ocValueType": "Quantity"
        },
        {
          "propertyName": "VSSTRESN",
          "propertyCode": "C70856",
          "propertyDecode": "VSSTRESN",
          "datatype": "integer",
          "isEnabled": null,
          "ocFacet": "Result.Value",
          "matchMethod": "code_match",
          "ocValueType": "Quantity"
        },
        {
          "propertyName": "VSSTRESU",
          "propertyCode": "C73688",
          "propertyDecode": "VSSTRESU",
          "datatype": "",
          "isEnabled": null,
          "ocFacet": "Result.Unit",
          "matchMethod": "code_match",
          "ocValueType": "CodeableConcept"
        },
        {
          "propertyName": "VSPOS",
          "propertyCode": "C62164",
          "propertyDecode": "VSPOS",
          "datatype": "",
          "isEnabled": null,
          "ocFacet": "BodyPosition",
          "matchMethod": "code_match",
          "ocValueType": "CodeableConcept"
        },
        {
          "propertyName": "VSLOC",
          "propertyCode": "C13717",
          "propertyDecode": "VSLOC",
          "datatype": "",
          "isEnabled": null,
          "ocFacet": "Location",
          "matchMethod": "code_match",
          "ocValueType": "CodeableConcept"
        },
        {
          "propertyName": "VSLAT",
          "propertyCode": "C25185",
          "propertyDecode": "VSLAT",
          "datatype": "",
          "isEnabled": null,
          "ocFacet": "Location.Laterality",
          "matchMethod": "code_match",
          "ocValueType": "CodeableConcept"
        },
        {
          "propertyName": "VSDTC",
          "propertyCode": "C82515",
          "propertyDecode": "VSDTC",
          "datatype": "",
          "isEnabled": null,
          "ocFacet": "Timing.CollectionDateTime",
          "matchMethod": "code_match",
          "ocValueType": "dateTime"
        }
      ]
    },
    {
      "bcId": "BiomedicalConcept_221",
      "bcName": "Respiratory Rate",
      "bcCode": "C49678",
      "propertyMappings": [
        {
          "propertyName": "VSTESTCD",
          "propertyCode": "",
          "propertyDecode": "VSTESTCD",
          "datatype": "",
          "isEnabled": null,
          "ocFacet": "Identification.Topic",
          "matchMethod": "name_heuristic",
          "ocValueType": "CodeableConcept"
        },
        {
          "propertyName": "VSTEST",
          "propertyCode": "",
          "propertyDecode": "VSTEST",
          "datatype": "",
          "isEnabled": null,
          "ocFacet": "Identification.Topic",
          "matchMethod": "name_heuristic_v2",
          "ocValueType": "CodeableConcept"
        },
        {
          "propertyName": "VSORRES",
          "propertyCode": "C70856",
          "propertyDecode": "VSORRES",
          "datatype": "integer",
          "isEnabled": null,
          "ocFacet": "Result.Value",
          "matchMethod": "code_match",
          "ocValueType": "Quantity"
        },
        {
          "propertyName": "VSORRESU",
          "propertyCode": "C73688",
          "propertyDecode": "VSORRESU",
          "datatype": "",
          "isEnabled": null,
          "ocFacet": "Result.Unit",
          "matchMethod": "code_match",
          "ocValueType": "CodeableConcept"
        },
        {
          "propertyName": "VSSTRESC",
          "propertyCode": "C70856",
          "propertyDecode": "VSSTRESC",
          "datatype": "integer",
          "isEnabled": null,
          "ocFacet": "Result.Value",
          "matchMethod": "code_match",
          "ocValueType": "Quantity"
        },
        {
          "propertyName": "VSSTRESN",
          "propertyCode": "C70856",
          "propertyDecode": "VSSTRESN",
          "datatype": "integer",
          "isEnabled": null,
          "ocFacet": "Result.Value",
          "matchMethod": "code_match",
          "ocValueType": "Quantity"
        },
        {
          "propertyName": "VSSTRESU",
          "propertyCode": "C73688",
          "propertyDecode": "VSSTRESU",
          "datatype": "",
          "isEnabled": null,
          "ocFacet": "Result.Unit",
          "matchMethod": "code_match",
          "ocValueType": "CodeableConcept"
        },
        {
          "propertyName": "VSDTC",
          "propertyCode": "C82515",
          "propertyDecode": "VSDTC",
          "datatype": "",
          "isEnabled": null,
          "ocFacet": "Timing.CollectionDateTime",
          "matchMethod": "code_match",
          "ocValueType": "dateTime"
        }
      ]
    },
    {
      "bcId": "BiomedicalConcept_222",
      "bcName": "Body Mass Index",
      "bcCode": "C16358",
      "propertyMappings": [
        {
          "propertyName": "VSTESTCD",
          "propertyCode": "",
          "propertyDecode": "VSTESTCD",
          "datatype": "",
          "isEnabled": null,
          "ocFacet": "Identification.Topic",
          "matchMethod": "name_heuristic",
          "ocValueType": "CodeableConcept"
        },
        {
          "propertyName": "VSTEST",
          "propertyCode": "",
          "propertyDecode": "VSTEST",
          "datatype": "",
          "isEnabled": null,
          "ocFacet": "Identification.Topic",
          "matchMethod": "name_heuristic_v2",
          "ocValueType": "CodeableConcept"
        },
        {
          "propertyName": "VSORRES",
          "propertyCode": "C70856",
          "propertyDecode": "VSORRES",
          "datatype": "float",
          "isEnabled": null,
          "ocFacet": "Result.Value",
          "matchMethod": "code_match",
          "ocValueType": "Quantity"
        },
        {
          "propertyName": "VSORRESU",
          "propertyCode": "C42575",
          "propertyDecode": "VSORRESU",
          "datatype": "",
          "isEnabled": null,
          "ocFacet": "Result.Unit",
          "matchMethod": "code_match",
          "ocValueType": "CodeableConcept"
        },
        {
          "propertyName": "VSSTRESC",
          "propertyCode": "C70856",
          "propertyDecode": "VSSTRESC",
          "datatype": "float",
          "isEnabled": null,
          "ocFacet": "Result.Value",
          "matchMethod": "code_match",
          "ocValueType": "Quantity"
        },
        {
          "propertyName": "VSSTRESN",
          "propertyCode": "C70856",
          "propertyDecode": "VSSTRESN",
          "datatype": "float",
          "isEnabled": null,
          "ocFacet": "Result.Value",
          "matchMethod": "code_match",
          "ocValueType": "Quantity"
        },
        {
          "propertyName": "VSSTRESU",
          "propertyCode": "C42575",
          "propertyDecode": "VSSTRESU",
          "datatype": "",
          "isEnabled": null,
          "ocFacet": "Result.Unit",
          "matchMethod": "code_match",
          "ocValueType": "CodeableConcept"
        },
        {
          "propertyName": "VSDTC",
          "propertyCode": "C82515",
          "propertyDecode": "VSDTC",
          "datatype": "",
          "isEnabled": null,
          "ocFacet": "Timing.CollectionDateTime",
          "matchMethod": "code_match",
          "ocValueType": "dateTime"
        }
      ]
    },
    {
      "bcId": "BiomedicalConcept_224",
      "bcName": "Electrocardiogram Analysis",
      "bcCode": "C181655",
      "propertyMappings": [
        {
          "propertyName": "EGTESTCD",
          "propertyCode": "",
          "propertyDecode": "EGTESTCD",
          "datatype": "",
          "isEnabled": null,
          "ocFacet": "Identification.Topic",
          "matchMethod": "name_heuristic",
          "ocValueType": "CodeableConcept"
        },
        {
          "propertyName": "EGTEST",
          "propertyCode": "",
          "propertyDecode": "EGTEST",
          "datatype": "",
          "isEnabled": null,
          "ocFacet": "Identification.Topic",
          "matchMethod": "name_heuristic_v2",
          "ocValueType": "CodeableConcept"
        },
        {
          "propertyName": "EGORRES",
          "propertyCode": "C125009",
          "propertyDecode": "EGORRES",
          "datatype": "text",
          "isEnabled": null,
          "ocFacet": "Result.Value",
          "matchMethod": "name_heuristic",
          "ocValueType": "CodeableConcept"
        },
        {
          "propertyName": "EGSTRESC",
          "propertyCode": "C125009",
          "propertyDecode": "EGSTRESC",
          "datatype": "text",
          "isEnabled": null,
          "ocFacet": "Result.Value",
          "matchMethod": "name_heuristic",
          "ocValueType": "CodeableConcept"
        },
        {
          "propertyName": "EGCAT",
          "propertyCode": "C25372",
          "propertyDecode": "EGCAT",
          "datatype": "",
          "isEnabled": null,
          "ocFacet": "Identification.ObservationCategory",
          "matchMethod": "name_heuristic",
          "ocValueType": "CodeableConcept"
        },
        {
          "propertyName": "EGMETHOD",
          "propertyCode": "C82535",
          "propertyDecode": "EGMETHOD",
          "datatype": "",
          "isEnabled": null,
          "ocFacet": "CollectionMethod",
          "matchMethod": "code_match",
          "ocValueType": "CodeableConcept"
        },
        {
          "propertyName": "EGEVAL",
          "propertyCode": "C51824",
          "propertyDecode": "EGEVAL",
          "datatype": "",
          "isEnabled": null,
          "ocFacet": "Evaluator",
          "matchMethod": "name_heuristic",
          "ocValueType": "CodeableConcept"
        },
        {
          "propertyName": "EGCLSIG",
          "propertyCode": "C93532",
          "propertyDecode": "EGCLSIG",
          "datatype": "",
          "isEnabled": null,
          "ocFacet": "Result.Value",
          "matchMethod": "name_heuristic",
          "ocValueType": "CodeableConcept"
        },
        {
          "propertyName": "EGDTC",
          "propertyCode": "C82515",
          "propertyDecode": "EGDTC",
          "datatype": "",
          "isEnabled": null,
          "ocFacet": "Timing.CollectionDateTime",
          "matchMethod": "code_match",
          "ocValueType": "dateTime"
        }
      ]
    },
    {
      "bcId": "BiomedicalConcept_225",
      "bcName": "Atrioventricular Conduction ECG Assessment",
      "bcCode": "C111131",
      "propertyMappings": [
        {
          "propertyName": "EGTESTCD",
          "propertyCode": "",
          "propertyDecode": "EGTESTCD",
          "datatype": "",
          "isEnabled": null,
          "ocFacet": "Identification.Topic",
          "matchMethod": "name_heuristic",
          "ocValueType": "CodeableConcept"
        },
        {
          "propertyName": "EGTEST",
          "propertyCode": "",
          "propertyDecode": "EGTEST",
          "datatype": "",
          "isEnabled": null,
          "ocFacet": "Identification.Topic",
          "matchMethod": "name_heuristic_v2",
          "ocValueType": "CodeableConcept"
        },
        {
          "propertyName": "EGORRES",
          "propertyCode": "C70856",
          "propertyDecode": "EGORRES",
          "datatype": "text",
          "isEnabled": null,
          "ocFacet": "Result.Value",
          "matchMethod": "code_match",
          "ocValueType": "CodeableConcept"
        },
        {
          "propertyName": "EGSTRESC",
          "propertyCode": "C70856",
          "propertyDecode": "EGSTRESC",
          "datatype": "text",
          "isEnabled": null,
          "ocFacet": "Result.Value",
          "matchMethod": "code_match",
          "ocValueType": "CodeableConcept"
        },
        {
          "propertyName": "EGCAT",
          "propertyCode": "C25372",
          "propertyDecode": "EGCAT",
          "datatype": "",
          "isEnabled": null,
          "ocFacet": "Identification.ObservationCategory",
          "matchMethod": "name_heuristic",
          "ocValueType": "CodeableConcept"
        },
        {
          "propertyName": "EGPOS",
          "propertyCode": "C62164",
          "propertyDecode": "EGPOS",
          "datatype": "",
          "isEnabled": null,
          "ocFacet": "BodyPosition",
          "matchMethod": "code_match",
          "ocValueType": "CodeableConcept"
        },
        {
          "propertyName": "EGMETHOD",
          "propertyCode": "C82535",
          "propertyDecode": "EGMETHOD",
          "datatype": "",
          "isEnabled": null,
          "ocFacet": "CollectionMethod",
          "matchMethod": "code_match",
          "ocValueType": "CodeableConcept"
        },
        {
          "propertyName": "EGEVAL",
          "propertyCode": "C51824",
          "propertyDecode": "EGEVAL",
          "datatype": "",
          "isEnabled": null,
          "ocFacet": "Evaluator",
          "matchMethod": "name_heuristic",
          "ocValueType": "CodeableConcept"
        },
        {
          "propertyName": "EGDTC",
          "propertyCode": "C82515",
          "propertyDecode": "EGDTC",
          "datatype": "",
          "isEnabled": null,
          "ocFacet": "Timing.CollectionDateTime",
          "matchMethod": "code_match",
          "ocValueType": "dateTime"
        }
      ]
    },
    {
      "bcId": "BiomedicalConcept_226",
      "bcName": "Axis and Voltage ECG Assessment",
      "bcCode": "C111132",
      "propertyMappings": [
        {
          "propertyName": "EGTESTCD",
          "propertyCode": "",
          "propertyDecode": "EGTESTCD",
          "datatype": "",
          "isEnabled": null,
          "ocFacet": "Identification.Topic",
          "matchMethod": "name_heuristic",
          "ocValueType": "CodeableConcept"
        },
        {
          "propertyName": "EGTEST",
          "propertyCode": "",
          "propertyDecode": "EGTEST",
          "datatype": "",
          "isEnabled": null,
          "ocFacet": "Identification.Topic",
          "matchMethod": "name_heuristic_v2",
          "ocValueType": "CodeableConcept"
        },
        {
          "propertyName": "EGORRES",
          "propertyCode": "C70856",
          "propertyDecode": "EGORRES",
          "datatype": "text",
          "isEnabled": null,
          "ocFacet": "Result.Value",
          "matchMethod": "code_match",
          "ocValueType": "CodeableConcept"
        },
        {
          "propertyName": "EGSTRESC",
          "propertyCode": "C70856",
          "propertyDecode": "EGSTRESC",
          "datatype": "text",
          "isEnabled": null,
          "ocFacet": "Result.Value",
          "matchMethod": "code_match",
          "ocValueType": "CodeableConcept"
        },
        {
          "propertyName": "EGCAT",
          "propertyCode": "C25372",
          "propertyDecode": "EGCAT",
          "datatype": "",
          "isEnabled": null,
          "ocFacet": "Identification.ObservationCategory",
          "matchMethod": "name_heuristic",
          "ocValueType": "CodeableConcept"
        },
        {
          "propertyName": "EGPOS",
          "propertyCode": "C62164",
          "propertyDecode": "EGPOS",
          "datatype": "",
          "isEnabled": null,
          "ocFacet": "BodyPosition",
          "matchMethod": "code_match",
          "ocValueType": "CodeableConcept"
        },
        {
          "propertyName": "EGMETHOD",
          "propertyCode": "C82535",
          "propertyDecode": "EGMETHOD",
          "datatype": "",
          "isEnabled": null,
          "ocFacet": "CollectionMethod",
          "matchMethod": "code_match",
          "ocValueType": "CodeableConcept"
        },
        {
          "propertyName": "EGEVAL",
          "propertyCode": "C51824",
          "propertyDecode": "EGEVAL",
          "datatype": "",
          "isEnabled": null,
          "ocFacet": "Evaluator",
          "matchMethod": "name_heuristic",
          "ocValueType": "CodeableConcept"
        },
        {
          "propertyName": "EGDTC",
          "propertyCode": "C82515",
          "propertyDecode": "EGDTC",
          "datatype": "",
          "isEnabled": null,
          "ocFacet": "Timing.CollectionDateTime",
          "matchMethod": "code_match",
          "ocValueType": "dateTime"
        }
      ]
    },
    {
      "bcId": "BiomedicalConcept_227",
      "bcName": "Chamber Hypertrophy or Enlargement ECG Assessment",
      "bcCode": "C111155",
      "propertyMappings": [
        {
          "propertyName": "EGTESTCD",
          "propertyCode": "",
          "propertyDecode": "EGTESTCD",
          "datatype": "",
          "isEnabled": null,
          "ocFacet": "Identification.Topic",
          "matchMethod": "name_heuristic",
          "ocValueType": "CodeableConcept"
        },
        {
          "propertyName": "EGTEST",
          "propertyCode": "",
          "propertyDecode": "EGTEST",
          "datatype": "",
          "isEnabled": null,
          "ocFacet": "Identification.Topic",
          "matchMethod": "name_heuristic_v2",
          "ocValueType": "CodeableConcept"
        },
        {
          "propertyName": "EGORRES",
          "propertyCode": "C70856",
          "propertyDecode": "EGORRES",
          "datatype": "text",
          "isEnabled": null,
          "ocFacet": "Result.Value",
          "matchMethod": "code_match",
          "ocValueType": "CodeableConcept"
        },
        {
          "propertyName": "EGSTRESC",
          "propertyCode": "C70856",
          "propertyDecode": "EGSTRESC",
          "datatype": "text",
          "isEnabled": null,
          "ocFacet": "Result.Value",
          "matchMethod": "code_match",
          "ocValueType": "CodeableConcept"
        },
        {
          "propertyName": "EGCAT",
          "propertyCode": "C25372",
          "propertyDecode": "EGCAT",
          "datatype": "",
          "isEnabled": null,
          "ocFacet": "Identification.ObservationCategory",
          "matchMethod": "name_heuristic",
          "ocValueType": "CodeableConcept"
        },
        {
          "propertyName": "EGPOS",
          "propertyCode": "C62164",
          "propertyDecode": "EGPOS",
          "datatype": "",
          "isEnabled": null,
          "ocFacet": "BodyPosition",
          "matchMethod": "code_match",
          "ocValueType": "CodeableConcept"
        },
        {
          "propertyName": "EGMETHOD",
          "propertyCode": "C82535",
          "propertyDecode": "EGMETHOD",
          "datatype": "",
          "isEnabled": null,
          "ocFacet": "CollectionMethod",
          "matchMethod": "code_match",
          "ocValueType": "CodeableConcept"
        },
        {
          "propertyName": "EGEVAL",
          "propertyCode": "C51824",
          "propertyDecode": "EGEVAL",
          "datatype": "",
          "isEnabled": null,
          "ocFacet": "Evaluator",
          "matchMethod": "name_heuristic",
          "ocValueType": "CodeableConcept"
        },
        {
          "propertyName": "EGDTC",
          "propertyCode": "C82515",
          "propertyDecode": "EGDTC",
          "datatype": "",
          "isEnabled": null,
          "ocFacet": "Timing.CollectionDateTime",
          "matchMethod": "code_match",
          "ocValueType": "dateTime"
        }
      ]
    },
    {
      "bcId": "BiomedicalConcept_228",
      "bcName": "ECG Technical Quality",
      "bcCode": "C117807",
      "propertyMappings": [
        {
          "propertyName": "EGTESTCD",
          "propertyCode": "",
          "propertyDecode": "EGTESTCD",
          "datatype": "",
          "isEnabled": null,
          "ocFacet": "Identification.Topic",
          "matchMethod": "name_heuristic",
          "ocValueType": "CodeableConcept"
        },
        {
          "propertyName": "EGTEST",
          "propertyCode": "",
          "propertyDecode": "EGTEST",
          "datatype": "",
          "isEnabled": null,
          "ocFacet": "Identification.Topic",
          "matchMethod": "name_heuristic_v2",
          "ocValueType": "CodeableConcept"
        },
        {
          "propertyName": "EGORRES",
          "propertyCode": "C114120",
          "propertyDecode": "EGORRES",
          "datatype": "text",
          "isEnabled": null,
          "ocFacet": "Result.Value",
          "matchMethod": "name_heuristic",
          "ocValueType": "CodeableConcept"
        },
        {
          "propertyName": "EGSTRESC",
          "propertyCode": "C114120",
          "propertyDecode": "EGSTRESC",
          "datatype": "text",
          "isEnabled": null,
          "ocFacet": "Result.Value",
          "matchMethod": "name_heuristic",
          "ocValueType": "CodeableConcept"
        },
        {
          "propertyName": "EGMETHOD",
          "propertyCode": "C82535",
          "propertyDecode": "EGMETHOD",
          "datatype": "",
          "isEnabled": null,
          "ocFacet": "CollectionMethod",
          "matchMethod": "code_match",
          "ocValueType": "CodeableConcept"
        },
        {
          "propertyName": "EGEVAL",
          "propertyCode": "C51824",
          "propertyDecode": "EGEVAL",
          "datatype": "",
          "isEnabled": null,
          "ocFacet": "Evaluator",
          "matchMethod": "name_heuristic",
          "ocValueType": "CodeableConcept"
        },
        {
          "propertyName": "EGDTC",
          "propertyCode": "C82515",
          "propertyDecode": "EGDTC",
          "datatype": "",
          "isEnabled": null,
          "ocFacet": "Timing.CollectionDateTime",
          "matchMethod": "code_match",
          "ocValueType": "dateTime"
        }
      ]
    },
    {
      "bcId": "BiomedicalConcept_229",
      "bcName": "Intraventricular and Intraatrial Conduction ECG Assessment",
      "bcCode": "C111238",
      "propertyMappings": [
        {
          "propertyName": "EGTESTCD",
          "propertyCode": "",
          "propertyDecode": "EGTESTCD",
          "datatype": "",
          "isEnabled": null,
          "ocFacet": "Identification.Topic",
          "matchMethod": "name_heuristic",
          "ocValueType": "CodeableConcept"
        },
        {
          "propertyName": "EGTEST",
          "propertyCode": "",
          "propertyDecode": "EGTEST",
          "datatype": "",
          "isEnabled": null,
          "ocFacet": "Identification.Topic",
          "matchMethod": "name_heuristic_v2",
          "ocValueType": "CodeableConcept"
        },
        {
          "propertyName": "EGORRES",
          "propertyCode": "C70856",
          "propertyDecode": "EGORRES",
          "datatype": "text",
          "isEnabled": null,
          "ocFacet": "Result.Value",
          "matchMethod": "code_match",
          "ocValueType": "CodeableConcept"
        },
        {
          "propertyName": "EGSTRESC",
          "propertyCode": "C70856",
          "propertyDecode": "EGSTRESC",
          "datatype": "text",
          "isEnabled": null,
          "ocFacet": "Result.Value",
          "matchMethod": "code_match",
          "ocValueType": "CodeableConcept"
        },
        {
          "propertyName": "EGCAT",
          "propertyCode": "C25372",
          "propertyDecode": "EGCAT",
          "datatype": "",
          "isEnabled": null,
          "ocFacet": "Identification.ObservationCategory",
          "matchMethod": "name_heuristic",
          "ocValueType": "CodeableConcept"
        },
        {
          "propertyName": "EGPOS",
          "propertyCode": "C62164",
          "propertyDecode": "EGPOS",
          "datatype": "",
          "isEnabled": null,
          "ocFacet": "BodyPosition",
          "matchMethod": "code_match",
          "ocValueType": "CodeableConcept"
        },
        {
          "propertyName": "EGMETHOD",
          "propertyCode": "C82535",
          "propertyDecode": "EGMETHOD",
          "datatype": "",
          "isEnabled": null,
          "ocFacet": "CollectionMethod",
          "matchMethod": "code_match",
          "ocValueType": "CodeableConcept"
        },
        {
          "propertyName": "EGEVAL",
          "propertyCode": "C51824",
          "propertyDecode": "EGEVAL",
          "datatype": "",
          "isEnabled": null,
          "ocFacet": "Evaluator",
          "matchMethod": "name_heuristic",
          "ocValueType": "CodeableConcept"
        },
        {
          "propertyName": "EGDTC",
          "propertyCode": "C82515",
          "propertyDecode": "EGDTC",
          "datatype": "",
          "isEnabled": null,
          "ocFacet": "Timing.CollectionDateTime",
          "matchMethod": "code_match",
          "ocValueType": "dateTime"
        }
      ]
    },
    {
      "bcId": "BiomedicalConcept_230",
      "bcName": "Myocardial Infarction ECG Assessment",
      "bcCode": "C111280",
      "propertyMappings": [
        {
          "propertyName": "EGTESTCD",
          "propertyCode": "",
          "propertyDecode": "EGTESTCD",
          "datatype": "",
          "isEnabled": null,
          "ocFacet": "Identification.Topic",
          "matchMethod": "name_heuristic",
          "ocValueType": "CodeableConcept"
        },
        {
          "propertyName": "EGTEST",
          "propertyCode": "",
          "propertyDecode": "EGTEST",
          "datatype": "",
          "isEnabled": null,
          "ocFacet": "Identification.Topic",
          "matchMethod": "name_heuristic_v2",
          "ocValueType": "CodeableConcept"
        },
        {
          "propertyName": "EGORRES",
          "propertyCode": "C70856",
          "propertyDecode": "EGORRES",
          "datatype": "text",
          "isEnabled": null,
          "ocFacet": "Result.Value",
          "matchMethod": "code_match",
          "ocValueType": "CodeableConcept"
        },
        {
          "propertyName": "EGSTRESC",
          "propertyCode": "C70856",
          "propertyDecode": "EGSTRESC",
          "datatype": "text",
          "isEnabled": null,
          "ocFacet": "Result.Value",
          "matchMethod": "code_match",
          "ocValueType": "CodeableConcept"
        },
        {
          "propertyName": "EGCAT",
          "propertyCode": "C25372",
          "propertyDecode": "EGCAT",
          "datatype": "",
          "isEnabled": null,
          "ocFacet": "Identification.ObservationCategory",
          "matchMethod": "name_heuristic",
          "ocValueType": "CodeableConcept"
        },
        {
          "propertyName": "EGPOS",
          "propertyCode": "C62164",
          "propertyDecode": "EGPOS",
          "datatype": "",
          "isEnabled": null,
          "ocFacet": "BodyPosition",
          "matchMethod": "code_match",
          "ocValueType": "CodeableConcept"
        },
        {
          "propertyName": "EGMETHOD",
          "propertyCode": "C82535",
          "propertyDecode": "EGMETHOD",
          "datatype": "",
          "isEnabled": null,
          "ocFacet": "CollectionMethod",
          "matchMethod": "code_match",
          "ocValueType": "CodeableConcept"
        },
        {
          "propertyName": "EGEVAL",
          "propertyCode": "C51824",
          "propertyDecode": "EGEVAL",
          "datatype": "",
          "isEnabled": null,
          "ocFacet": "Evaluator",
          "matchMethod": "name_heuristic",
          "ocValueType": "CodeableConcept"
        },
        {
          "propertyName": "EGDTC",
          "propertyCode": "",
          "propertyDecode": "EGDTC",
          "datatype": "",
          "isEnabled": null,
          "ocFacet": "Timing.CollectionDateTime",
          "matchMethod": "name_heuristic",
          "ocValueType": "dateTime"
        }
      ]
    },
    {
      "bcId": "BiomedicalConcept_231",
      "bcName": "Pacemaker ECG Assessment",
      "bcCode": "C111285",
      "propertyMappings": [
        {
          "propertyName": "EGTESTCD",
          "propertyCode": "",
          "propertyDecode": "EGTESTCD",
          "datatype": "",
          "isEnabled": null,
          "ocFacet": "Identification.Topic",
          "matchMethod": "name_heuristic",
          "ocValueType": "CodeableConcept"
        },
        {
          "propertyName": "EGTEST",
          "propertyCode": "",
          "propertyDecode": "EGTEST",
          "datatype": "",
          "isEnabled": null,
          "ocFacet": "Identification.Topic",
          "matchMethod": "name_heuristic_v2",
          "ocValueType": "CodeableConcept"
        },
        {
          "propertyName": "EGORRES",
          "propertyCode": "C70856",
          "propertyDecode": "EGORRES",
          "datatype": "text",
          "isEnabled": null,
          "ocFacet": "Result.Value",
          "matchMethod": "code_match",
          "ocValueType": "CodeableConcept"
        },
        {
          "propertyName": "EGSTRESC",
          "propertyCode": "C70856",
          "propertyDecode": "EGSTRESC",
          "datatype": "text",
          "isEnabled": null,
          "ocFacet": "Result.Value",
          "matchMethod": "code_match",
          "ocValueType": "CodeableConcept"
        },
        {
          "propertyName": "EGCAT",
          "propertyCode": "C25372",
          "propertyDecode": "EGCAT",
          "datatype": "",
          "isEnabled": null,
          "ocFacet": "Identification.ObservationCategory",
          "matchMethod": "name_heuristic",
          "ocValueType": "CodeableConcept"
        },
        {
          "propertyName": "EGPOS",
          "propertyCode": "C62164",
          "propertyDecode": "EGPOS",
          "datatype": "",
          "isEnabled": null,
          "ocFacet": "BodyPosition",
          "matchMethod": "code_match",
          "ocValueType": "CodeableConcept"
        },
        {
          "propertyName": "EGMETHOD",
          "propertyCode": "C82535",
          "propertyDecode": "EGMETHOD",
          "datatype": "",
          "isEnabled": null,
          "ocFacet": "CollectionMethod",
          "matchMethod": "code_match",
          "ocValueType": "CodeableConcept"
        },
        {
          "propertyName": "EGEVAL",
          "propertyCode": "C51824",
          "propertyDecode": "EGEVAL",
          "datatype": "",
          "isEnabled": null,
          "ocFacet": "Evaluator",
          "matchMethod": "name_heuristic",
          "ocValueType": "CodeableConcept"
        },
        {
          "propertyName": "EGDTC",
          "propertyCode": "C82515",
          "propertyDecode": "EGDTC",
          "datatype": "",
          "isEnabled": null,
          "ocFacet": "Timing.CollectionDateTime",
          "matchMethod": "code_match",
          "ocValueType": "dateTime"
        }
      ]
    },
    {
      "bcId": "BiomedicalConcept_232",
      "bcName": "Rhythm Not Otherwise Specified ECG Assessment",
      "bcCode": "C111307",
      "propertyMappings": [
        {
          "propertyName": "EGTESTCD",
          "propertyCode": "",
          "propertyDecode": "EGTESTCD",
          "datatype": "",
          "isEnabled": null,
          "ocFacet": "Identification.Topic",
          "matchMethod": "name_heuristic",
          "ocValueType": "CodeableConcept"
        },
        {
          "propertyName": "EGTEST",
          "propertyCode": "",
          "propertyDecode": "EGTEST",
          "datatype": "",
          "isEnabled": null,
          "ocFacet": "Identification.Topic",
          "matchMethod": "name_heuristic_v2",
          "ocValueType": "CodeableConcept"
        },
        {
          "propertyName": "EGORRES",
          "propertyCode": "C70856",
          "propertyDecode": "EGORRES",
          "datatype": "text",
          "isEnabled": null,
          "ocFacet": "Result.Value",
          "matchMethod": "code_match",
          "ocValueType": "CodeableConcept"
        },
        {
          "propertyName": "EGSTRESC",
          "propertyCode": "C70856",
          "propertyDecode": "EGSTRESC",
          "datatype": "text",
          "isEnabled": null,
          "ocFacet": "Result.Value",
          "matchMethod": "code_match",
          "ocValueType": "CodeableConcept"
        },
        {
          "propertyName": "EGCAT",
          "propertyCode": "C25372",
          "propertyDecode": "EGCAT",
          "datatype": "",
          "isEnabled": null,
          "ocFacet": "Identification.ObservationCategory",
          "matchMethod": "name_heuristic",
          "ocValueType": "CodeableConcept"
        },
        {
          "propertyName": "EGPOS",
          "propertyCode": "C62164",
          "propertyDecode": "EGPOS",
          "datatype": "",
          "isEnabled": null,
          "ocFacet": "BodyPosition",
          "matchMethod": "code_match",
          "ocValueType": "CodeableConcept"
        },
        {
          "propertyName": "EGMETHOD",
          "propertyCode": "C82535",
          "propertyDecode": "EGMETHOD",
          "datatype": "",
          "isEnabled": null,
          "ocFacet": "CollectionMethod",
          "matchMethod": "code_match",
          "ocValueType": "CodeableConcept"
        },
        {
          "propertyName": "EGEVAL",
          "propertyCode": "C51824",
          "propertyDecode": "EGEVAL",
          "datatype": "",
          "isEnabled": null,
          "ocFacet": "Evaluator",
          "matchMethod": "name_heuristic",
          "ocValueType": "CodeableConcept"
        },
        {
          "propertyName": "EGDTC",
          "propertyCode": "C82515",
          "propertyDecode": "EGDTC",
          "datatype": "",
          "isEnabled": null,
          "ocFacet": "Timing.CollectionDateTime",
          "matchMethod": "code_match",
          "ocValueType": "dateTime"
        }
      ]
    },
    {
      "bcId": "BiomedicalConcept_233",
      "bcName": "ST Segment, T wave, and U wave ECG Assessment",
      "bcCode": "C111363",
      "propertyMappings": [
        {
          "propertyName": "EGTESTCD",
          "propertyCode": "",
          "propertyDecode": "EGTESTCD",
          "datatype": "",
          "isEnabled": null,
          "ocFacet": "Identification.Topic",
          "matchMethod": "name_heuristic",
          "ocValueType": "CodeableConcept"
        },
        {
          "propertyName": "EGTEST",
          "propertyCode": "",
          "propertyDecode": "EGTEST",
          "datatype": "",
          "isEnabled": null,
          "ocFacet": "Identification.Topic",
          "matchMethod": "name_heuristic_v2",
          "ocValueType": "CodeableConcept"
        },
        {
          "propertyName": "EGORRES",
          "propertyCode": "C70856",
          "propertyDecode": "EGORRES",
          "datatype": "text",
          "isEnabled": null,
          "ocFacet": "Result.Value",
          "matchMethod": "code_match",
          "ocValueType": "CodeableConcept"
        },
        {
          "propertyName": "EGSTRESC",
          "propertyCode": "C70856",
          "propertyDecode": "EGSTRESC",
          "datatype": "text",
          "isEnabled": null,
          "ocFacet": "Result.Value",
          "matchMethod": "code_match",
          "ocValueType": "CodeableConcept"
        },
        {
          "propertyName": "EGCAT",
          "propertyCode": "C25372",
          "propertyDecode": "EGCAT",
          "datatype": "",
          "isEnabled": null,
          "ocFacet": "Identification.ObservationCategory",
          "matchMethod": "name_heuristic",
          "ocValueType": "CodeableConcept"
        },
        {
          "propertyName": "EGPOS",
          "propertyCode": "C62164",
          "propertyDecode": "EGPOS",
          "datatype": "",
          "isEnabled": null,
          "ocFacet": "BodyPosition",
          "matchMethod": "code_match",
          "ocValueType": "CodeableConcept"
        },
        {
          "propertyName": "EGMETHOD",
          "propertyCode": "C82535",
          "propertyDecode": "EGMETHOD",
          "datatype": "",
          "isEnabled": null,
          "ocFacet": "CollectionMethod",
          "matchMethod": "code_match",
          "ocValueType": "CodeableConcept"
        },
        {
          "propertyName": "EGEVAL",
          "propertyCode": "C51824",
          "propertyDecode": "EGEVAL",
          "datatype": "",
          "isEnabled": null,
          "ocFacet": "Evaluator",
          "matchMethod": "name_heuristic",
          "ocValueType": "CodeableConcept"
        },
        {
          "propertyName": "EGDTC",
          "propertyCode": "C82515",
          "propertyDecode": "EGDTC",
          "datatype": "",
          "isEnabled": null,
          "ocFacet": "Timing.CollectionDateTime",
          "matchMethod": "code_match",
          "ocValueType": "dateTime"
        }
      ]
    },
    {
      "bcId": "BiomedicalConcept_234",
      "bcName": "Sinus Node Rhythm and Arrhythmia ECG Assessment",
      "bcCode": "C111312",
      "propertyMappings": [
        {
          "propertyName": "EGTESTCD",
          "propertyCode": "",
          "propertyDecode": "EGTESTCD",
          "datatype": "",
          "isEnabled": null,
          "ocFacet": "Identification.Topic",
          "matchMethod": "name_heuristic",
          "ocValueType": "CodeableConcept"
        },
        {
          "propertyName": "EGTEST",
          "propertyCode": "",
          "propertyDecode": "EGTEST",
          "datatype": "",
          "isEnabled": null,
          "ocFacet": "Identification.Topic",
          "matchMethod": "name_heuristic_v2",
          "ocValueType": "CodeableConcept"
        },
        {
          "propertyName": "EGORRES",
          "propertyCode": "C70856",
          "propertyDecode": "EGORRES",
          "datatype": "text",
          "isEnabled": null,
          "ocFacet": "Result.Value",
          "matchMethod": "code_match",
          "ocValueType": "CodeableConcept"
        },
        {
          "propertyName": "EGSTRESC",
          "propertyCode": "C70856",
          "propertyDecode": "EGSTRESC",
          "datatype": "text",
          "isEnabled": null,
          "ocFacet": "Result.Value",
          "matchMethod": "code_match",
          "ocValueType": "CodeableConcept"
        },
        {
          "propertyName": "EGCAT",
          "propertyCode": "C25372",
          "propertyDecode": "EGCAT",
          "datatype": "",
          "isEnabled": null,
          "ocFacet": "Identification.ObservationCategory",
          "matchMethod": "name_heuristic",
          "ocValueType": "CodeableConcept"
        },
        {
          "propertyName": "EGPOS",
          "propertyCode": "C62164",
          "propertyDecode": "EGPOS",
          "datatype": "",
          "isEnabled": null,
          "ocFacet": "BodyPosition",
          "matchMethod": "code_match",
          "ocValueType": "CodeableConcept"
        },
        {
          "propertyName": "EGMETHOD",
          "propertyCode": "C82535",
          "propertyDecode": "EGMETHOD",
          "datatype": "",
          "isEnabled": null,
          "ocFacet": "CollectionMethod",
          "matchMethod": "code_match",
          "ocValueType": "CodeableConcept"
        },
        {
          "propertyName": "EGEVAL",
          "propertyCode": "C51824",
          "propertyDecode": "EGEVAL",
          "datatype": "",
          "isEnabled": null,
          "ocFacet": "Evaluator",
          "matchMethod": "name_heuristic",
          "ocValueType": "CodeableConcept"
        },
        {
          "propertyName": "EGDTC",
          "propertyCode": "C82515",
          "propertyDecode": "EGDTC",
          "datatype": "",
          "isEnabled": null,
          "ocFacet": "Timing.CollectionDateTime",
          "matchMethod": "code_match",
          "ocValueType": "dateTime"
        }
      ]
    },
    {
      "bcId": "BiomedicalConcept_235",
      "bcName": "Supraventricular Arrhythmia ECG Assessment",
      "bcCode": "C111320",
      "propertyMappings": [
        {
          "propertyName": "EGTESTCD",
          "propertyCode": "",
          "propertyDecode": "EGTESTCD",
          "datatype": "",
          "isEnabled": null,
          "ocFacet": "Identification.Topic",
          "matchMethod": "name_heuristic",
          "ocValueType": "CodeableConcept"
        },
        {
          "propertyName": "EGTEST",
          "propertyCode": "",
          "propertyDecode": "EGTEST",
          "datatype": "",
          "isEnabled": null,
          "ocFacet": "Identification.Topic",
          "matchMethod": "name_heuristic_v2",
          "ocValueType": "CodeableConcept"
        },
        {
          "propertyName": "EGORRES",
          "propertyCode": "C70856",
          "propertyDecode": "EGORRES",
          "datatype": "text",
          "isEnabled": null,
          "ocFacet": "Result.Value",
          "matchMethod": "code_match",
          "ocValueType": "CodeableConcept"
        },
        {
          "propertyName": "EGSTRESC",
          "propertyCode": "C70856",
          "propertyDecode": "EGSTRESC",
          "datatype": "text",
          "isEnabled": null,
          "ocFacet": "Result.Value",
          "matchMethod": "code_match",
          "ocValueType": "CodeableConcept"
        },
        {
          "propertyName": "EGCAT",
          "propertyCode": "C25372",
          "propertyDecode": "EGCAT",
          "datatype": "",
          "isEnabled": null,
          "ocFacet": "Identification.ObservationCategory",
          "matchMethod": "name_heuristic",
          "ocValueType": "CodeableConcept"
        },
        {
          "propertyName": "EGPOS",
          "propertyCode": "C62164",
          "propertyDecode": "EGPOS",
          "datatype": "",
          "isEnabled": null,
          "ocFacet": "BodyPosition",
          "matchMethod": "code_match",
          "ocValueType": "CodeableConcept"
        },
        {
          "propertyName": "EGMETHOD",
          "propertyCode": "C82535",
          "propertyDecode": "EGMETHOD",
          "datatype": "",
          "isEnabled": null,
          "ocFacet": "CollectionMethod",
          "matchMethod": "code_match",
          "ocValueType": "CodeableConcept"
        },
        {
          "propertyName": "EGEVAL",
          "propertyCode": "C51824",
          "propertyDecode": "EGEVAL",
          "datatype": "",
          "isEnabled": null,
          "ocFacet": "Evaluator",
          "matchMethod": "name_heuristic",
          "ocValueType": "CodeableConcept"
        },
        {
          "propertyName": "EGDTC",
          "propertyCode": "C82515",
          "propertyDecode": "EGDTC",
          "datatype": "",
          "isEnabled": null,
          "ocFacet": "Timing.CollectionDateTime",
          "matchMethod": "code_match",
          "ocValueType": "dateTime"
        }
      ]
    },
    {
      "bcId": "BiomedicalConcept_236",
      "bcName": "Supraventricular Tachyarrhythmia ECG Assessment",
      "bcCode": "C111321",
      "propertyMappings": [
        {
          "propertyName": "EGTESTCD",
          "propertyCode": "",
          "propertyDecode": "EGTESTCD",
          "datatype": "",
          "isEnabled": null,
          "ocFacet": "Identification.Topic",
          "matchMethod": "name_heuristic",
          "ocValueType": "CodeableConcept"
        },
        {
          "propertyName": "EGTEST",
          "propertyCode": "",
          "propertyDecode": "EGTEST",
          "datatype": "",
          "isEnabled": null,
          "ocFacet": "Identification.Topic",
          "matchMethod": "name_heuristic_v2",
          "ocValueType": "CodeableConcept"
        },
        {
          "propertyName": "EGORRES",
          "propertyCode": "C70856",
          "propertyDecode": "EGORRES",
          "datatype": "text",
          "isEnabled": null,
          "ocFacet": "Result.Value",
          "matchMethod": "code_match",
          "ocValueType": "CodeableConcept"
        },
        {
          "propertyName": "EGSTRESC",
          "propertyCode": "C70856",
          "propertyDecode": "EGSTRESC",
          "datatype": "text",
          "isEnabled": null,
          "ocFacet": "Result.Value",
          "matchMethod": "code_match",
          "ocValueType": "CodeableConcept"
        },
        {
          "propertyName": "EGCAT",
          "propertyCode": "C25372",
          "propertyDecode": "EGCAT",
          "datatype": "",
          "isEnabled": null,
          "ocFacet": "Identification.ObservationCategory",
          "matchMethod": "name_heuristic",
          "ocValueType": "CodeableConcept"
        },
        {
          "propertyName": "EGPOS",
          "propertyCode": "C62164",
          "propertyDecode": "EGPOS",
          "datatype": "",
          "isEnabled": null,
          "ocFacet": "BodyPosition",
          "matchMethod": "code_match",
          "ocValueType": "CodeableConcept"
        },
        {
          "propertyName": "EGMETHOD",
          "propertyCode": "C82535",
          "propertyDecode": "EGMETHOD",
          "datatype": "",
          "isEnabled": null,
          "ocFacet": "CollectionMethod",
          "matchMethod": "code_match",
          "ocValueType": "CodeableConcept"
        },
        {
          "propertyName": "EGEVAL",
          "propertyCode": "C51824",
          "propertyDecode": "EGEVAL",
          "datatype": "",
          "isEnabled": null,
          "ocFacet": "Evaluator",
          "matchMethod": "name_heuristic",
          "ocValueType": "CodeableConcept"
        },
        {
          "propertyName": "EGDTC",
          "propertyCode": "C82515",
          "propertyDecode": "EGDTC",
          "datatype": "",
          "isEnabled": null,
          "ocFacet": "Timing.CollectionDateTime",
          "matchMethod": "code_match",
          "ocValueType": "dateTime"
        }
      ]
    },
    {
      "bcId": "BiomedicalConcept_237",
      "bcName": "Aggregate PR Interval",
      "bcCode": "C117773",
      "propertyMappings": [
        {
          "propertyName": "EGTESTCD",
          "propertyCode": "",
          "propertyDecode": "EGTESTCD",
          "datatype": "",
          "isEnabled": null,
          "ocFacet": "Identification.Topic",
          "matchMethod": "name_heuristic",
          "ocValueType": "CodeableConcept"
        },
        {
          "propertyName": "EGTEST",
          "propertyCode": "",
          "propertyDecode": "EGTEST",
          "datatype": "",
          "isEnabled": null,
          "ocFacet": "Identification.Topic",
          "matchMethod": "name_heuristic_v2",
          "ocValueType": "CodeableConcept"
        },
        {
          "propertyName": "EGORRES",
          "propertyCode": "C25330",
          "propertyDecode": "EGORRES",
          "datatype": "text",
          "isEnabled": null,
          "ocFacet": "Result.Value",
          "matchMethod": "name_heuristic",
          "ocValueType": "CodeableConcept"
        },
        {
          "propertyName": "EGORRESU",
          "propertyCode": "C42574",
          "propertyDecode": "EGORRESU",
          "datatype": "",
          "isEnabled": null,
          "ocFacet": "Result.Unit",
          "matchMethod": "code_match",
          "ocValueType": "CodeableConcept"
        },
        {
          "propertyName": "EGSTRESC",
          "propertyCode": "C25330",
          "propertyDecode": "EGSTRESC",
          "datatype": "text",
          "isEnabled": null,
          "ocFacet": "Result.Value",
          "matchMethod": "name_heuristic",
          "ocValueType": "CodeableConcept"
        },
        {
          "propertyName": "EGSTRESN",
          "propertyCode": "C25330",
          "propertyDecode": "EGSTRESN",
          "datatype": "float",
          "isEnabled": null,
          "ocFacet": "Result.Value",
          "matchMethod": "name_heuristic",
          "ocValueType": "Quantity"
        },
        {
          "propertyName": "EGSTRESU",
          "propertyCode": "C42574",
          "propertyDecode": "EGSTRESU",
          "datatype": "",
          "isEnabled": null,
          "ocFacet": "Result.Unit",
          "matchMethod": "code_match",
          "ocValueType": "CodeableConcept"
        },
        {
          "propertyName": "EGCAT",
          "propertyCode": "C25372",
          "propertyDecode": "EGCAT",
          "datatype": "",
          "isEnabled": null,
          "ocFacet": "Identification.ObservationCategory",
          "matchMethod": "name_heuristic",
          "ocValueType": "CodeableConcept"
        },
        {
          "propertyName": "EGPOS",
          "propertyCode": "C62164",
          "propertyDecode": "EGPOS",
          "datatype": "",
          "isEnabled": null,
          "ocFacet": "BodyPosition",
          "matchMethod": "code_match",
          "ocValueType": "CodeableConcept"
        },
        {
          "propertyName": "EGMETHOD",
          "propertyCode": "C82535",
          "propertyDecode": "EGMETHOD",
          "datatype": "",
          "isEnabled": null,
          "ocFacet": "CollectionMethod",
          "matchMethod": "code_match",
          "ocValueType": "CodeableConcept"
        },
        {
          "propertyName": "EGEVAL",
          "propertyCode": "C51824",
          "propertyDecode": "EGEVAL",
          "datatype": "",
          "isEnabled": null,
          "ocFacet": "Evaluator",
          "matchMethod": "name_heuristic",
          "ocValueType": "CodeableConcept"
        },
        {
          "propertyName": "EGDTC",
          "propertyCode": "C82515",
          "propertyDecode": "EGDTC",
          "datatype": "",
          "isEnabled": null,
          "ocFacet": "Timing.CollectionDateTime",
          "matchMethod": "code_match",
          "ocValueType": "dateTime"
        },
        {
          "propertyName": "EGENDTC",
          "propertyCode": "C82516",
          "propertyDecode": "EGENDTC",
          "datatype": "",
          "isEnabled": null,
          "ocFacet": "Timing.EndDate",
          "matchMethod": "name_heuristic",
          "ocValueType": "dateTime"
        }
      ]
    },
    {
      "bcId": "BiomedicalConcept_238",
      "bcName": "Aggregate QRS Duration",
      "bcCode": "C117779",
      "propertyMappings": [
        {
          "propertyName": "EGTESTCD",
          "propertyCode": "",
          "propertyDecode": "EGTESTCD",
          "datatype": "",
          "isEnabled": null,
          "ocFacet": "Identification.Topic",
          "matchMethod": "name_heuristic",
          "ocValueType": "CodeableConcept"
        },
        {
          "propertyName": "EGTEST",
          "propertyCode": "",
          "propertyDecode": "EGTEST",
          "datatype": "",
          "isEnabled": null,
          "ocFacet": "Identification.Topic",
          "matchMethod": "name_heuristic_v2",
          "ocValueType": "CodeableConcept"
        },
        {
          "propertyName": "EGORRES",
          "propertyCode": "C25330",
          "propertyDecode": "EGORRES",
          "datatype": "text",
          "isEnabled": null,
          "ocFacet": "Result.Value",
          "matchMethod": "name_heuristic",
          "ocValueType": "CodeableConcept"
        },
        {
          "propertyName": "EGORRESU",
          "propertyCode": "C42574",
          "propertyDecode": "EGORRESU",
          "datatype": "",
          "isEnabled": null,
          "ocFacet": "Result.Unit",
          "matchMethod": "code_match",
          "ocValueType": "CodeableConcept"
        },
        {
          "propertyName": "EGSTRESC",
          "propertyCode": "C25330",
          "propertyDecode": "EGSTRESC",
          "datatype": "text",
          "isEnabled": null,
          "ocFacet": "Result.Value",
          "matchMethod": "name_heuristic",
          "ocValueType": "CodeableConcept"
        },
        {
          "propertyName": "EGSTRESN",
          "propertyCode": "C25330",
          "propertyDecode": "EGSTRESN",
          "datatype": "float",
          "isEnabled": null,
          "ocFacet": "Result.Value",
          "matchMethod": "name_heuristic",
          "ocValueType": "Quantity"
        },
        {
          "propertyName": "EGSTRESU",
          "propertyCode": "C42574",
          "propertyDecode": "EGSTRESU",
          "datatype": "",
          "isEnabled": null,
          "ocFacet": "Result.Unit",
          "matchMethod": "code_match",
          "ocValueType": "CodeableConcept"
        },
        {
          "propertyName": "EGCAT",
          "propertyCode": "C25372",
          "propertyDecode": "EGCAT",
          "datatype": "",
          "isEnabled": null,
          "ocFacet": "Identification.ObservationCategory",
          "matchMethod": "name_heuristic",
          "ocValueType": "CodeableConcept"
        },
        {
          "propertyName": "EGPOS",
          "propertyCode": "C62164",
          "propertyDecode": "EGPOS",
          "datatype": "",
          "isEnabled": null,
          "ocFacet": "BodyPosition",
          "matchMethod": "code_match",
          "ocValueType": "CodeableConcept"
        },
        {
          "propertyName": "EGMETHOD",
          "propertyCode": "C82535",
          "propertyDecode": "EGMETHOD",
          "datatype": "",
          "isEnabled": null,
          "ocFacet": "CollectionMethod",
          "matchMethod": "code_match",
          "ocValueType": "CodeableConcept"
        },
        {
          "propertyName": "EGEVAL",
          "propertyCode": "C51824",
          "propertyDecode": "EGEVAL",
          "datatype": "",
          "isEnabled": null,
          "ocFacet": "Evaluator",
          "matchMethod": "name_heuristic",
          "ocValueType": "CodeableConcept"
        },
        {
          "propertyName": "EGDTC",
          "propertyCode": "C82515",
          "propertyDecode": "EGDTC",
          "datatype": "",
          "isEnabled": null,
          "ocFacet": "Timing.CollectionDateTime",
          "matchMethod": "code_match",
          "ocValueType": "dateTime"
        },
        {
          "propertyName": "EGENDTC",
          "propertyCode": "C82516",
          "propertyDecode": "EGENDTC",
          "datatype": "",
          "isEnabled": null,
          "ocFacet": "Timing.EndDate",
          "matchMethod": "name_heuristic",
          "ocValueType": "dateTime"
        }
      ]
    },
    {
      "bcId": "BiomedicalConcept_239",
      "bcName": "Aggregate QT Interval",
      "bcCode": "C117783",
      "propertyMappings": [
        {
          "propertyName": "EGTESTCD",
          "propertyCode": "",
          "propertyDecode": "EGTESTCD",
          "datatype": "",
          "isEnabled": null,
          "ocFacet": "Identification.Topic",
          "matchMethod": "name_heuristic",
          "ocValueType": "CodeableConcept"
        },
        {
          "propertyName": "EGTEST",
          "propertyCode": "",
          "propertyDecode": "EGTEST",
          "datatype": "",
          "isEnabled": null,
          "ocFacet": "Identification.Topic",
          "matchMethod": "name_heuristic_v2",
          "ocValueType": "CodeableConcept"
        },
        {
          "propertyName": "EGORRES",
          "propertyCode": "C25330",
          "propertyDecode": "EGORRES",
          "datatype": "text",
          "isEnabled": null,
          "ocFacet": "Result.Value",
          "matchMethod": "name_heuristic",
          "ocValueType": "CodeableConcept"
        },
        {
          "propertyName": "EGORRESU",
          "propertyCode": "C42574",
          "propertyDecode": "EGORRESU",
          "datatype": "",
          "isEnabled": null,
          "ocFacet": "Result.Unit",
          "matchMethod": "code_match",
          "ocValueType": "CodeableConcept"
        },
        {
          "propertyName": "EGSTRESC",
          "propertyCode": "C25330",
          "propertyDecode": "EGSTRESC",
          "datatype": "text",
          "isEnabled": null,
          "ocFacet": "Result.Value",
          "matchMethod": "name_heuristic",
          "ocValueType": "CodeableConcept"
        },
        {
          "propertyName": "EGSTRESN",
          "propertyCode": "C25330",
          "propertyDecode": "EGSTRESN",
          "datatype": "float",
          "isEnabled": null,
          "ocFacet": "Result.Value",
          "matchMethod": "name_heuristic",
          "ocValueType": "Quantity"
        },
        {
          "propertyName": "EGSTRESU",
          "propertyCode": "C42574",
          "propertyDecode": "EGSTRESU",
          "datatype": "",
          "isEnabled": null,
          "ocFacet": "Result.Unit",
          "matchMethod": "code_match",
          "ocValueType": "CodeableConcept"
        },
        {
          "propertyName": "EGCAT",
          "propertyCode": "C25372",
          "propertyDecode": "EGCAT",
          "datatype": "",
          "isEnabled": null,
          "ocFacet": "Identification.ObservationCategory",
          "matchMethod": "name_heuristic",
          "ocValueType": "CodeableConcept"
        },
        {
          "propertyName": "EGPOS",
          "propertyCode": "C62164",
          "propertyDecode": "EGPOS",
          "datatype": "",
          "isEnabled": null,
          "ocFacet": "BodyPosition",
          "matchMethod": "code_match",
          "ocValueType": "CodeableConcept"
        },
        {
          "propertyName": "EGMETHOD",
          "propertyCode": "C82535",
          "propertyDecode": "EGMETHOD",
          "datatype": "",
          "isEnabled": null,
          "ocFacet": "CollectionMethod",
          "matchMethod": "code_match",
          "ocValueType": "CodeableConcept"
        },
        {
          "propertyName": "EGEVAL",
          "propertyCode": "C51824",
          "propertyDecode": "EGEVAL",
          "datatype": "",
          "isEnabled": null,
          "ocFacet": "Evaluator",
          "matchMethod": "name_heuristic",
          "ocValueType": "CodeableConcept"
        },
        {
          "propertyName": "EGDTC",
          "propertyCode": "C82515",
          "propertyDecode": "EGDTC",
          "datatype": "",
          "isEnabled": null,
          "ocFacet": "Timing.CollectionDateTime",
          "matchMethod": "code_match",
          "ocValueType": "dateTime"
        },
        {
          "propertyName": "EGENDTC",
          "propertyCode": "C82516",
          "propertyDecode": "EGENDTC",
          "datatype": "",
          "isEnabled": null,
          "ocFacet": "Timing.EndDate",
          "matchMethod": "name_heuristic",
          "ocValueType": "dateTime"
        }
      ]
    },
    {
      "bcId": "BiomedicalConcept_240",
      "bcName": "Aggregate QTCB Interval",
      "bcCode": "C117784",
      "propertyMappings": [
        {
          "propertyName": "EGTESTCD",
          "propertyCode": "",
          "propertyDecode": "EGTESTCD",
          "datatype": "",
          "isEnabled": null,
          "ocFacet": "Identification.Topic",
          "matchMethod": "name_heuristic",
          "ocValueType": "CodeableConcept"
        },
        {
          "propertyName": "EGTEST",
          "propertyCode": "",
          "propertyDecode": "EGTEST",
          "datatype": "",
          "isEnabled": null,
          "ocFacet": "Identification.Topic",
          "matchMethod": "name_heuristic_v2",
          "ocValueType": "CodeableConcept"
        },
        {
          "propertyName": "EGORRES",
          "propertyCode": "C25330",
          "propertyDecode": "EGORRES",
          "datatype": "text",
          "isEnabled": null,
          "ocFacet": "Result.Value",
          "matchMethod": "name_heuristic",
          "ocValueType": "CodeableConcept"
        },
        {
          "propertyName": "EGORRESU",
          "propertyCode": "C42574",
          "propertyDecode": "EGORRESU",
          "datatype": "",
          "isEnabled": null,
          "ocFacet": "Result.Unit",
          "matchMethod": "code_match",
          "ocValueType": "CodeableConcept"
        },
        {
          "propertyName": "EGSTRESC",
          "propertyCode": "C25330",
          "propertyDecode": "EGSTRESC",
          "datatype": "text",
          "isEnabled": null,
          "ocFacet": "Result.Value",
          "matchMethod": "name_heuristic",
          "ocValueType": "CodeableConcept"
        },
        {
          "propertyName": "EGSTRESN",
          "propertyCode": "C25330",
          "propertyDecode": "EGSTRESN",
          "datatype": "float",
          "isEnabled": null,
          "ocFacet": "Result.Value",
          "matchMethod": "name_heuristic",
          "ocValueType": "Quantity"
        },
        {
          "propertyName": "EGSTRESU",
          "propertyCode": "C42574",
          "propertyDecode": "EGSTRESU",
          "datatype": "",
          "isEnabled": null,
          "ocFacet": "Result.Unit",
          "matchMethod": "code_match",
          "ocValueType": "CodeableConcept"
        },
        {
          "propertyName": "EGCAT",
          "propertyCode": "C25372",
          "propertyDecode": "EGCAT",
          "datatype": "",
          "isEnabled": null,
          "ocFacet": "Identification.ObservationCategory",
          "matchMethod": "name_heuristic",
          "ocValueType": "CodeableConcept"
        },
        {
          "propertyName": "EGPOS",
          "propertyCode": "C62164",
          "propertyDecode": "EGPOS",
          "datatype": "",
          "isEnabled": null,
          "ocFacet": "BodyPosition",
          "matchMethod": "code_match",
          "ocValueType": "CodeableConcept"
        },
        {
          "propertyName": "EGMETHOD",
          "propertyCode": "C82535",
          "propertyDecode": "EGMETHOD",
          "datatype": "",
          "isEnabled": null,
          "ocFacet": "CollectionMethod",
          "matchMethod": "code_match",
          "ocValueType": "CodeableConcept"
        },
        {
          "propertyName": "EGEVAL",
          "propertyCode": "C51824",
          "propertyDecode": "EGEVAL",
          "datatype": "",
          "isEnabled": null,
          "ocFacet": "Evaluator",
          "matchMethod": "name_heuristic",
          "ocValueType": "CodeableConcept"
        },
        {
          "propertyName": "EGDTC",
          "propertyCode": "C82515",
          "propertyDecode": "EGDTC",
          "datatype": "",
          "isEnabled": null,
          "ocFacet": "Timing.CollectionDateTime",
          "matchMethod": "code_match",
          "ocValueType": "dateTime"
        },
        {
          "propertyName": "EGENDTC",
          "propertyCode": "C82516",
          "propertyDecode": "EGENDTC",
          "datatype": "",
          "isEnabled": null,
          "ocFacet": "Timing.EndDate",
          "matchMethod": "name_heuristic",
          "ocValueType": "dateTime"
        }
      ]
    },
    {
      "bcId": "BiomedicalConcept_241",
      "bcName": "Aggregate QTCF Interval",
      "bcCode": "C117786",
      "propertyMappings": [
        {
          "propertyName": "EGTESTCD",
          "propertyCode": "",
          "propertyDecode": "EGTESTCD",
          "datatype": "",
          "isEnabled": null,
          "ocFacet": "Identification.Topic",
          "matchMethod": "name_heuristic",
          "ocValueType": "CodeableConcept"
        },
        {
          "propertyName": "EGTEST",
          "propertyCode": "",
          "propertyDecode": "EGTEST",
          "datatype": "",
          "isEnabled": null,
          "ocFacet": "Identification.Topic",
          "matchMethod": "name_heuristic_v2",
          "ocValueType": "CodeableConcept"
        },
        {
          "propertyName": "EGORRES",
          "propertyCode": "C25330",
          "propertyDecode": "EGORRES",
          "datatype": "text",
          "isEnabled": null,
          "ocFacet": "Result.Value",
          "matchMethod": "name_heuristic",
          "ocValueType": "CodeableConcept"
        },
        {
          "propertyName": "EGORRESU",
          "propertyCode": "C42574",
          "propertyDecode": "EGORRESU",
          "datatype": "",
          "isEnabled": null,
          "ocFacet": "Result.Unit",
          "matchMethod": "code_match",
          "ocValueType": "CodeableConcept"
        },
        {
          "propertyName": "EGSTRESC",
          "propertyCode": "C25330",
          "propertyDecode": "EGSTRESC",
          "datatype": "text",
          "isEnabled": null,
          "ocFacet": "Result.Value",
          "matchMethod": "name_heuristic",
          "ocValueType": "CodeableConcept"
        },
        {
          "propertyName": "EGSTRESN",
          "propertyCode": "C25330",
          "propertyDecode": "EGSTRESN",
          "datatype": "float",
          "isEnabled": null,
          "ocFacet": "Result.Value",
          "matchMethod": "name_heuristic",
          "ocValueType": "Quantity"
        },
        {
          "propertyName": "EGSTRESU",
          "propertyCode": "C42574",
          "propertyDecode": "EGSTRESU",
          "datatype": "",
          "isEnabled": null,
          "ocFacet": "Result.Unit",
          "matchMethod": "code_match",
          "ocValueType": "CodeableConcept"
        },
        {
          "propertyName": "EGCAT",
          "propertyCode": "C25372",
          "propertyDecode": "EGCAT",
          "datatype": "",
          "isEnabled": null,
          "ocFacet": "Identification.ObservationCategory",
          "matchMethod": "name_heuristic",
          "ocValueType": "CodeableConcept"
        },
        {
          "propertyName": "EGPOS",
          "propertyCode": "C62164",
          "propertyDecode": "EGPOS",
          "datatype": "",
          "isEnabled": null,
          "ocFacet": "BodyPosition",
          "matchMethod": "code_match",
          "ocValueType": "CodeableConcept"
        },
        {
          "propertyName": "EGMETHOD",
          "propertyCode": "C82535",
          "propertyDecode": "EGMETHOD",
          "datatype": "",
          "isEnabled": null,
          "ocFacet": "CollectionMethod",
          "matchMethod": "code_match",
          "ocValueType": "CodeableConcept"
        },
        {
          "propertyName": "EGEVAL",
          "propertyCode": "C51824",
          "propertyDecode": "EGEVAL",
          "datatype": "",
          "isEnabled": null,
          "ocFacet": "Evaluator",
          "matchMethod": "name_heuristic",
          "ocValueType": "CodeableConcept"
        },
        {
          "propertyName": "EGDTC",
          "propertyCode": "C82515",
          "propertyDecode": "EGDTC",
          "datatype": "",
          "isEnabled": null,
          "ocFacet": "Timing.CollectionDateTime",
          "matchMethod": "code_match",
          "ocValueType": "dateTime"
        },
        {
          "propertyName": "EGENDTC",
          "propertyCode": "C82516",
          "propertyDecode": "EGENDTC",
          "datatype": "",
          "isEnabled": null,
          "ocFacet": "Timing.EndDate",
          "matchMethod": "name_heuristic",
          "ocValueType": "dateTime"
        }
      ]
    },
    {
      "bcId": "BiomedicalConcept_242",
      "bcName": "Aggregate RR Interval",
      "bcCode": "C117791",
      "propertyMappings": [
        {
          "propertyName": "EGTESTCD",
          "propertyCode": "",
          "propertyDecode": "EGTESTCD",
          "datatype": "",
          "isEnabled": null,
          "ocFacet": "Identification.Topic",
          "matchMethod": "name_heuristic",
          "ocValueType": "CodeableConcept"
        },
        {
          "propertyName": "EGTEST",
          "propertyCode": "",
          "propertyDecode": "EGTEST",
          "datatype": "",
          "isEnabled": null,
          "ocFacet": "Identification.Topic",
          "matchMethod": "name_heuristic_v2",
          "ocValueType": "CodeableConcept"
        },
        {
          "propertyName": "EGORRES",
          "propertyCode": "C25330",
          "propertyDecode": "EGORRES",
          "datatype": "text",
          "isEnabled": null,
          "ocFacet": "Result.Value",
          "matchMethod": "name_heuristic",
          "ocValueType": "CodeableConcept"
        },
        {
          "propertyName": "EGORRESU",
          "propertyCode": "C42574",
          "propertyDecode": "EGORRESU",
          "datatype": "",
          "isEnabled": null,
          "ocFacet": "Result.Unit",
          "matchMethod": "code_match",
          "ocValueType": "CodeableConcept"
        },
        {
          "propertyName": "EGSTRESC",
          "propertyCode": "C25330",
          "propertyDecode": "EGSTRESC",
          "datatype": "text",
          "isEnabled": null,
          "ocFacet": "Result.Value",
          "matchMethod": "name_heuristic",
          "ocValueType": "CodeableConcept"
        },
        {
          "propertyName": "EGSTRESN",
          "propertyCode": "C25330",
          "propertyDecode": "EGSTRESN",
          "datatype": "float",
          "isEnabled": null,
          "ocFacet": "Result.Value",
          "matchMethod": "name_heuristic",
          "ocValueType": "Quantity"
        },
        {
          "propertyName": "EGSTRESU",
          "propertyCode": "C42574",
          "propertyDecode": "EGSTRESU",
          "datatype": "",
          "isEnabled": null,
          "ocFacet": "Result.Unit",
          "matchMethod": "code_match",
          "ocValueType": "CodeableConcept"
        },
        {
          "propertyName": "EGCAT",
          "propertyCode": "C25372",
          "propertyDecode": "EGCAT",
          "datatype": "",
          "isEnabled": null,
          "ocFacet": "Identification.ObservationCategory",
          "matchMethod": "name_heuristic",
          "ocValueType": "CodeableConcept"
        },
        {
          "propertyName": "EGPOS",
          "propertyCode": "C62164",
          "propertyDecode": "EGPOS",
          "datatype": "",
          "isEnabled": null,
          "ocFacet": "BodyPosition",
          "matchMethod": "code_match",
          "ocValueType": "CodeableConcept"
        },
        {
          "propertyName": "EGMETHOD",
          "propertyCode": "C82535",
          "propertyDecode": "EGMETHOD",
          "datatype": "",
          "isEnabled": null,
          "ocFacet": "CollectionMethod",
          "matchMethod": "code_match",
          "ocValueType": "CodeableConcept"
        },
        {
          "propertyName": "EGEVAL",
          "propertyCode": "C51824",
          "propertyDecode": "EGEVAL",
          "datatype": "",
          "isEnabled": null,
          "ocFacet": "Evaluator",
          "matchMethod": "name_heuristic",
          "ocValueType": "CodeableConcept"
        },
        {
          "propertyName": "EGDTC",
          "propertyCode": "C82515",
          "propertyDecode": "EGDTC",
          "datatype": "",
          "isEnabled": null,
          "ocFacet": "Timing.CollectionDateTime",
          "matchMethod": "code_match",
          "ocValueType": "dateTime"
        },
        {
          "propertyName": "EGENDTC",
          "propertyCode": "C82516",
          "propertyDecode": "EGENDTC",
          "datatype": "",
          "isEnabled": null,
          "ocFacet": "Timing.EndDate",
          "matchMethod": "name_heuristic",
          "ocValueType": "dateTime"
        }
      ]
    },
    {
      "bcId": "BiomedicalConcept_243",
      "bcName": "Mean Heart Rate by Electrocardiogram",
      "bcCode": "C119259",
      "propertyMappings": [
        {
          "propertyName": "EGTESTCD",
          "propertyCode": "",
          "propertyDecode": "EGTESTCD",
          "datatype": "",
          "isEnabled": null,
          "ocFacet": "Identification.Topic",
          "matchMethod": "name_heuristic",
          "ocValueType": "CodeableConcept"
        },
        {
          "propertyName": "EGTEST",
          "propertyCode": "",
          "propertyDecode": "EGTEST",
          "datatype": "",
          "isEnabled": null,
          "ocFacet": "Identification.Topic",
          "matchMethod": "name_heuristic_v2",
          "ocValueType": "CodeableConcept"
        },
        {
          "propertyName": "EGORRES",
          "propertyCode": "C70856",
          "propertyDecode": "EGORRES",
          "datatype": "text",
          "isEnabled": null,
          "ocFacet": "Result.Value",
          "matchMethod": "code_match",
          "ocValueType": "CodeableConcept"
        },
        {
          "propertyName": "EGORRESU",
          "propertyCode": "C73688",
          "propertyDecode": "EGORRESU",
          "datatype": "",
          "isEnabled": null,
          "ocFacet": "Result.Unit",
          "matchMethod": "code_match",
          "ocValueType": "CodeableConcept"
        },
        {
          "propertyName": "EGSTRESC",
          "propertyCode": "C70856",
          "propertyDecode": "EGSTRESC",
          "datatype": "text",
          "isEnabled": null,
          "ocFacet": "Result.Value",
          "matchMethod": "code_match",
          "ocValueType": "CodeableConcept"
        },
        {
          "propertyName": "EGSTRESN",
          "propertyCode": "C70856",
          "propertyDecode": "EGSTRESN",
          "datatype": "float",
          "isEnabled": null,
          "ocFacet": "Result.Value",
          "matchMethod": "code_match",
          "ocValueType": "Quantity"
        },
        {
          "propertyName": "EGSTRESU",
          "propertyCode": "C73688",
          "propertyDecode": "EGSTRESU",
          "datatype": "",
          "isEnabled": null,
          "ocFacet": "Result.Unit",
          "matchMethod": "code_match",
          "ocValueType": "CodeableConcept"
        },
        {
          "propertyName": "EGCAT",
          "propertyCode": "C25372",
          "propertyDecode": "EGCAT",
          "datatype": "",
          "isEnabled": null,
          "ocFacet": "Identification.ObservationCategory",
          "matchMethod": "name_heuristic",
          "ocValueType": "CodeableConcept"
        },
        {
          "propertyName": "EGPOS",
          "propertyCode": "C62164",
          "propertyDecode": "EGPOS",
          "datatype": "",
          "isEnabled": null,
          "ocFacet": "BodyPosition",
          "matchMethod": "code_match",
          "ocValueType": "CodeableConcept"
        },
        {
          "propertyName": "EGMETHOD",
          "propertyCode": "C82535",
          "propertyDecode": "EGMETHOD",
          "datatype": "",
          "isEnabled": null,
          "ocFacet": "CollectionMethod",
          "matchMethod": "code_match",
          "ocValueType": "CodeableConcept"
        },
        {
          "propertyName": "EGEVAL",
          "propertyCode": "C51824",
          "propertyDecode": "EGEVAL",
          "datatype": "",
          "isEnabled": null,
          "ocFacet": "Evaluator",
          "matchMethod": "name_heuristic",
          "ocValueType": "CodeableConcept"
        },
        {
          "propertyName": "EGDTC",
          "propertyCode": "C82515",
          "propertyDecode": "EGDTC",
          "datatype": "",
          "isEnabled": null,
          "ocFacet": "Timing.CollectionDateTime",
          "matchMethod": "code_match",
          "ocValueType": "dateTime"
        }
      ]
    },
    {
      "bcId": "BiomedicalConcept_244",
      "bcName": "QRS Axis",
      "bcCode": "C118165",
      "propertyMappings": [
        {
          "propertyName": "EGTESTCD",
          "propertyCode": "",
          "propertyDecode": "EGTESTCD",
          "datatype": "",
          "isEnabled": null,
          "ocFacet": "Identification.Topic",
          "matchMethod": "name_heuristic",
          "ocValueType": "CodeableConcept"
        },
        {
          "propertyName": "EGTEST",
          "propertyCode": "",
          "propertyDecode": "EGTEST",
          "datatype": "",
          "isEnabled": null,
          "ocFacet": "Identification.Topic",
          "matchMethod": "name_heuristic_v2",
          "ocValueType": "CodeableConcept"
        },
        {
          "propertyName": "EGORRES",
          "propertyCode": "C70856",
          "propertyDecode": "EGORRES",
          "datatype": "text",
          "isEnabled": null,
          "ocFacet": "Result.Value",
          "matchMethod": "code_match",
          "ocValueType": "CodeableConcept"
        },
        {
          "propertyName": "EGORRESU",
          "propertyCode": "C68667",
          "propertyDecode": "EGORRESU",
          "datatype": "",
          "isEnabled": null,
          "ocFacet": "Result.Unit",
          "matchMethod": "code_match",
          "ocValueType": "CodeableConcept"
        },
        {
          "propertyName": "EGSTRESC",
          "propertyCode": "C70856",
          "propertyDecode": "EGSTRESC",
          "datatype": "text",
          "isEnabled": null,
          "ocFacet": "Result.Value",
          "matchMethod": "code_match",
          "ocValueType": "CodeableConcept"
        },
        {
          "propertyName": "EGSTRESN",
          "propertyCode": "C70856",
          "propertyDecode": "EGSTRESN",
          "datatype": "float",
          "isEnabled": null,
          "ocFacet": "Result.Value",
          "matchMethod": "code_match",
          "ocValueType": "Quantity"
        },
        {
          "propertyName": "EGSTRESU",
          "propertyCode": "C68667",
          "propertyDecode": "EGSTRESU",
          "datatype": "",
          "isEnabled": null,
          "ocFacet": "Result.Unit",
          "matchMethod": "code_match",
          "ocValueType": "CodeableConcept"
        },
        {
          "propertyName": "EGCAT",
          "propertyCode": "C25372",
          "propertyDecode": "EGCAT",
          "datatype": "",
          "isEnabled": null,
          "ocFacet": "Identification.ObservationCategory",
          "matchMethod": "name_heuristic",
          "ocValueType": "CodeableConcept"
        },
        {
          "propertyName": "EGPOS",
          "propertyCode": "C62164",
          "propertyDecode": "EGPOS",
          "datatype": "",
          "isEnabled": null,
          "ocFacet": "BodyPosition",
          "matchMethod": "code_match",
          "ocValueType": "CodeableConcept"
        },
        {
          "propertyName": "EGMETHOD",
          "propertyCode": "C82535",
          "propertyDecode": "EGMETHOD",
          "datatype": "",
          "isEnabled": null,
          "ocFacet": "CollectionMethod",
          "matchMethod": "code_match",
          "ocValueType": "CodeableConcept"
        },
        {
          "propertyName": "EGEVAL",
          "propertyCode": "C51824",
          "propertyDecode": "EGEVAL",
          "datatype": "",
          "isEnabled": null,
          "ocFacet": "Evaluator",
          "matchMethod": "name_heuristic",
          "ocValueType": "CodeableConcept"
        },
        {
          "propertyName": "EGDTC",
          "propertyCode": "C82515",
          "propertyDecode": "EGDTC",
          "datatype": "",
          "isEnabled": null,
          "ocFacet": "Timing.CollectionDateTime",
          "matchMethod": "code_match",
          "ocValueType": "dateTime"
        }
      ]
    },
    {
      "bcId": "BiomedicalConcept_245",
      "bcName": "QTc Correction Method Unspecified, Aggregate",
      "bcCode": "C174285",
      "propertyMappings": [
        {
          "propertyName": "EGTESTCD",
          "propertyCode": "",
          "propertyDecode": "EGTESTCD",
          "datatype": "",
          "isEnabled": null,
          "ocFacet": "Identification.Topic",
          "matchMethod": "name_heuristic",
          "ocValueType": "CodeableConcept"
        },
        {
          "propertyName": "EGTEST",
          "propertyCode": "",
          "propertyDecode": "EGTEST",
          "datatype": "",
          "isEnabled": null,
          "ocFacet": "Identification.Topic",
          "matchMethod": "name_heuristic_v2",
          "ocValueType": "CodeableConcept"
        },
        {
          "propertyName": "EGORRES",
          "propertyCode": "C25330",
          "propertyDecode": "EGORRES",
          "datatype": "text",
          "isEnabled": null,
          "ocFacet": "Result.Value",
          "matchMethod": "name_heuristic",
          "ocValueType": "CodeableConcept"
        },
        {
          "propertyName": "EGORRESU",
          "propertyCode": "C42574",
          "propertyDecode": "EGORRESU",
          "datatype": "",
          "isEnabled": null,
          "ocFacet": "Result.Unit",
          "matchMethod": "code_match",
          "ocValueType": "CodeableConcept"
        },
        {
          "propertyName": "EGSTRESC",
          "propertyCode": "C25330",
          "propertyDecode": "EGSTRESC",
          "datatype": "text",
          "isEnabled": null,
          "ocFacet": "Result.Value",
          "matchMethod": "name_heuristic",
          "ocValueType": "CodeableConcept"
        },
        {
          "propertyName": "EGSTRESN",
          "propertyCode": "C25330",
          "propertyDecode": "EGSTRESN",
          "datatype": "float",
          "isEnabled": null,
          "ocFacet": "Result.Value",
          "matchMethod": "name_heuristic",
          "ocValueType": "Quantity"
        },
        {
          "propertyName": "EGSTRESU",
          "propertyCode": "C42574",
          "propertyDecode": "EGSTRESU",
          "datatype": "",
          "isEnabled": null,
          "ocFacet": "Result.Unit",
          "matchMethod": "code_match",
          "ocValueType": "CodeableConcept"
        },
        {
          "propertyName": "EGCAT",
          "propertyCode": "C25372",
          "propertyDecode": "EGCAT",
          "datatype": "",
          "isEnabled": null,
          "ocFacet": "Identification.ObservationCategory",
          "matchMethod": "name_heuristic",
          "ocValueType": "CodeableConcept"
        },
        {
          "propertyName": "EGPOS",
          "propertyCode": "C62164",
          "propertyDecode": "EGPOS",
          "datatype": "",
          "isEnabled": null,
          "ocFacet": "BodyPosition",
          "matchMethod": "code_match",
          "ocValueType": "CodeableConcept"
        },
        {
          "propertyName": "EGMETHOD",
          "propertyCode": "C82535",
          "propertyDecode": "EGMETHOD",
          "datatype": "",
          "isEnabled": null,
          "ocFacet": "CollectionMethod",
          "matchMethod": "code_match",
          "ocValueType": "CodeableConcept"
        },
        {
          "propertyName": "EGEVAL",
          "propertyCode": "C51824",
          "propertyDecode": "EGEVAL",
          "datatype": "",
          "isEnabled": null,
          "ocFacet": "Evaluator",
          "matchMethod": "name_heuristic",
          "ocValueType": "CodeableConcept"
        },
        {
          "propertyName": "EGDTC",
          "propertyCode": "C82515",
          "propertyDecode": "EGDTC",
          "datatype": "",
          "isEnabled": null,
          "ocFacet": "Timing.CollectionDateTime",
          "matchMethod": "code_match",
          "ocValueType": "dateTime"
        },
        {
          "propertyName": "EGENDTC",
          "propertyCode": "C82516",
          "propertyDecode": "EGENDTC",
          "datatype": "",
          "isEnabled": null,
          "ocFacet": "Timing.EndDate",
          "matchMethod": "name_heuristic",
          "ocValueType": "dateTime"
        }
      ]
    },
    {
      "bcId": "BiomedicalConcept_246",
      "bcName": "Ventricular Arrhythmia ECG Assessment",
      "bcCode": "C111330",
      "propertyMappings": [
        {
          "propertyName": "EGTESTCD",
          "propertyCode": "",
          "propertyDecode": "EGTESTCD",
          "datatype": "",
          "isEnabled": null,
          "ocFacet": "Identification.Topic",
          "matchMethod": "name_heuristic",
          "ocValueType": "CodeableConcept"
        },
        {
          "propertyName": "EGTEST",
          "propertyCode": "",
          "propertyDecode": "EGTEST",
          "datatype": "",
          "isEnabled": null,
          "ocFacet": "Identification.Topic",
          "matchMethod": "name_heuristic_v2",
          "ocValueType": "CodeableConcept"
        },
        {
          "propertyName": "EGORRES",
          "propertyCode": "C70856",
          "propertyDecode": "EGORRES",
          "datatype": "text",
          "isEnabled": null,
          "ocFacet": "Result.Value",
          "matchMethod": "code_match",
          "ocValueType": "CodeableConcept"
        },
        {
          "propertyName": "EGSTRESC",
          "propertyCode": "C70856",
          "propertyDecode": "EGSTRESC",
          "datatype": "text",
          "isEnabled": null,
          "ocFacet": "Result.Value",
          "matchMethod": "code_match",
          "ocValueType": "CodeableConcept"
        },
        {
          "propertyName": "EGCAT",
          "propertyCode": "C25372",
          "propertyDecode": "EGCAT",
          "datatype": "",
