# =============================================================================
# Data Concepts: Pure Semantic Definitions
# =============================================================================
#
# DataConcepts are the central abstraction layer in the Universal Connector
# Architecture. They serve as the "hub" that everything else points TO:
#   - Dimensions/Measures/Attributes in AC/DC cubes -> is_a -> DataConcept
#   - ADaM Class Variables -> is_a -> DataConcept
#   - SDTM Variables -> is_a -> DataConcept
#   - USDM Elements -> is_a -> DataConcept
#
# DataConcepts themselves contain NO knowledge of ADaM, SDTM, or USDM.
# The mappings are declared by external model elements in mapping files.
#
# Source: concepts-data.tsk
# =============================================================================

concepts:

  # ===========================================================================
  # BASE CONCEPTS - Foundation hierarchy for inheritance
  # ===========================================================================

  - name: Person
    definition: "An individual entity"
    category: Base

  - name: MeasuredValue
    definition: "A value obtained through measurement or observation"
    category: Base

  - name: DerivedValue
    type_of: MeasuredValue
    definition: "A value computed from other values"
    category: Base

  - name: TimePoint
    definition: "A point in time when an observation or assessment occurs"
    category: Base

  - name: Intervention
    definition: "A treatment or action applied in a study"
    category: Base

  - name: Location
    definition: "A physical or organizational location"
    category: Base

  - name: PopulationDefinition
    definition: "A defined subset of subjects for analysis"
    category: Base

  - name: DataHandlingMethod
    definition: "A technique for processing or managing data"
    category: Base

  - name: StatisticalParameter
    type_of: MeasuredValue
    definition: "A numeric summary or estimate from statistical analysis"
    category: Base


  # ===========================================================================
  # STUDY DESIGN CONCEPTS - Core entities for clinical trials
  # ===========================================================================

  - name: Subject
    label: "Study Subject"
    type_of: Person
    definition: "A participant enrolled in a clinical study"
    category: StudyDesign
    # External mappings (see mappings/):
    #   ADaM: USUBJID
    #   SDTM: USUBJID
    #   USDM: StudySubject.identifier

  - name: Visit
    label: "Study Visit"
    type_of: TimePoint
    definition: "A scheduled study assessment timepoint"
    category: StudyDesign
    # External mappings:
    #   ADaM: AVISIT
    #   SDTM: VISIT
    #   USDM: ScheduledActivityInstance

  - name: VisitNumeric
    label: "Visit Number"
    type_of: TimePoint
    definition: "Numeric representation of study visit for ordering and analysis"
    category: StudyDesign
    # External mappings:
    #   ADaM: AVISITN
    #   SDTM: VISITNUM
    #   USDM: ScheduledActivityInstance.timepoint

  - name: Treatment
    label: "Treatment Assignment"
    type_of: Intervention
    definition: "The intervention or therapy assigned to a study subject"
    category: StudyDesign
    # External mappings:
    #   ADaM: TRT01A, TRTP, TRT01P
    #   SDTM: ARM, EXTRT
    #   USDM: StudyIntervention

  - name: Site
    label: "Clinical Site"
    type_of: Location
    definition: "A clinical site where study activities are conducted"
    category: StudyDesign
    # External mappings:
    #   ADaM: SITEID
    #   SDTM: SITEID
    #   USDM: StudySite.identifier


  # ===========================================================================
  # PARAMETER CONCEPTS - Test/assessment identifiers
  # ===========================================================================

  - name: Parameter
    label: "Analysis Parameter"
    definition: "A coded identifier for an analysis parameter or test"
    category: AnalysisParameter
    # External mappings:
    #   ADaM: PARAMCD
    #   SDTM: --TESTCD
    #   USDM: BiomedicalConcept

  - name: ParameterDescription
    label: "Parameter Name"
    definition: "Human-readable description of the analysis parameter"
    category: AnalysisParameter
    # External mappings:
    #   ADaM: PARAM
    #   SDTM: --TEST
    #   USDM: BiomedicalConcept.name


  # ===========================================================================
  # MEASURE CONCEPTS - Quantitative values
  # ===========================================================================

  - name: AnalysisValue
    label: "Analysis Value"
    type_of: MeasuredValue
    definition: "The primary numeric value for an observation used in analysis"
    category: AnalysisMeasure
    # External mappings:
    #   ADaM: AVAL
    #   SDTM: --STRESN
    #   USDM: Observation.value

  - name: BaselineValue
    label: "Baseline Value"
    type_of: MeasuredValue
    definition: "The value of a measurement at baseline, used as reference for change calculations"
    category: AnalysisMeasure
    # External mappings:
    #   ADaM: BASE
    #   USDM: Observation.baselineValue

  - name: ChangeValue
    label: "Change from Baseline"
    type_of: DerivedValue
    definition: "The difference between a post-baseline value and the baseline value"
    category: DerivedMeasure
    # External mappings:
    #   ADaM: CHG
    #   USDM: Observation.change

  - name: PercentChange
    label: "Percent Change from Baseline"
    type_of: DerivedValue
    definition: "The percent change from baseline: ((Post - Baseline) / Baseline) * 100"
    category: DerivedMeasure
    # External mappings:
    #   ADaM: PCHG
    #   USDM: Observation.percentChange


  # ===========================================================================
  # POPULATION FLAG CONCEPTS - Analysis population indicators
  # ===========================================================================

  - name: ITTFlag
    label: "Intent-to-Treat Population Flag"
    type_of: PopulationDefinition
    definition: "Flag indicating subject belongs to Intent-to-Treat population"
    category: PopulationFlag
    # External mappings:
    #   ADaM: ITTFL
    #   USDM: AnalysisPopulation (ITT)

  - name: EfficacyFlag
    label: "Efficacy Population Flag"
    type_of: PopulationDefinition
    definition: "Flag indicating subject belongs to Efficacy population"
    category: PopulationFlag
    # External mappings:
    #   ADaM: EFFFL
    #   USDM: AnalysisPopulation (Efficacy)


  # ===========================================================================
  # DATA HANDLING CONCEPTS - Imputation and missing data
  # ===========================================================================

  - name: ImputationMethod
    label: "Imputation Method"
    type_of: DataHandlingMethod
    definition: "Method used to handle missing data in the analysis"
    category: DataHandling
    # Common methods: LOCF, BOCF, WOCF, MMRM, MI


  # ===========================================================================
  # STATISTICAL OUTPUT CONCEPTS - Model results
  # ===========================================================================

  - name: LeastSquaresMean
    label: "Least Squares Mean"
    type_of: StatisticalParameter
    definition: "Adjusted mean estimate from regression analysis (ANCOVA, MMRM)"
    category: StatisticalEstimate
    # External mappings:
    #   ARS: AnalysisResult.estimate

  - name: StandardError
    label: "Standard Error"
    type_of: StatisticalParameter
    definition: "Measure of the statistical accuracy of an estimate"
    category: StatisticalEstimate
    # External mappings:
    #   ARS: AnalysisResult.standardError

  - name: ConfidenceLower
    label: "Lower Confidence Limit"
    type_of: StatisticalParameter
    definition: "Lower bound of the confidence interval"
    category: StatisticalEstimate
    # External mappings:
    #   ARS: AnalysisResult.confidenceInterval.lower

  - name: ConfidenceUpper
    label: "Upper Confidence Limit"
    type_of: StatisticalParameter
    definition: "Upper bound of the confidence interval"
    category: StatisticalEstimate
    # External mappings:
    #   ARS: AnalysisResult.confidenceInterval.upper

  - name: PValue
    label: "P-Value"
    type_of: StatisticalParameter
    definition: "Probability of obtaining test results at least as extreme as observed"
    category: StatisticalEstimate
    # External mappings:
    #   ARS: AnalysisResult.pValue

  - name: TreatmentDifference
    label: "Treatment Difference"
    type_of: StatisticalParameter
    definition: "Estimated difference between treatment group means"
    category: StatisticalEstimate
    # External mappings:
    #   ARS: AnalysisResult.contrast


  # ===========================================================================
  # DOMAIN-SPECIFIC CONCEPTS - ADAS-Cog example
  # ===========================================================================

  - name: ADASCog11
    label: "ADAS-Cog 11-item Total Score"
    type_of: Parameter
    definition: "Alzheimer's Disease Assessment Scale - Cognitive Subscale, 11-item version"
    category: CognitiveAssessment
    code_lists:
      - system: LOINC
        code: "72106-8"
