{
 "summary": {
  "totalVariables": 527,
  "inScope_GOC": 264,
  "precise_node_links": 194,
  "role_level_links": 185,
  "unmapped_out_of_scope": 148,
  "outOfScopeClasses": {
   "Associated Persons": 4,
   "Special-Purpose": 102,
   "Trial Design": 96,
   "Study Reference": 14,
   "Relationship": 47
  },
  "note": "GOC = General Observation Classes (Findings/Events/Interventions) covered by the Recording model. precise = is-a link to a named node via alias/dec/shared-dimension. role-level = routed to a role bucket; candidate for a named node. out-of-scope classes (Trial Design, Special-Purpose, Relationship, Study Reference, Associated Persons) are not observations."
 },
 "mappings": [
  {
   "variable": "STUDYID",
   "class": "General Observations",
   "role": "Identifier",
   "ccode": "C83082",
   "label": "Study Identifier",
   "node": "sharedDimensions/Study",
   "basis": "shared-dimension",
   "scope": "GOC",
   "linkType": "precise"
  },
  {
   "variable": "DOMAIN",
   "class": "General Observations",
   "role": "Identifier",
   "ccode": "C49558",
   "label": "Domain Abbreviation",
   "node": "Recording (domain = class discriminator)",
   "basis": "shared-dimension",
   "scope": "GOC",
   "linkType": "precise"
  },
  {
   "variable": "USUBJID",
   "class": "General Observations",
   "role": "Identifier",
   "ccode": "C69256",
   "label": "Unique Subject Identifier",
   "node": "sharedDimensions/Subject",
   "basis": "shared-dimension",
   "scope": "GOC",
   "linkType": "precise"
  },
  {
   "variable": "POOLID",
   "class": "General Observations",
   "role": "Identifier",
   "ccode": "C117053",
   "label": "Pool Identifier",
   "node": "Recording/Identity (or sharedDimensions)",
   "basis": "role-fallback",
   "scope": "GOC",
   "linkType": "role-level"
  },
  {
   "variable": "SPDEVID",
   "class": "General Observations",
   "role": "Identifier",
   "ccode": "C117060",
   "label": "Sponsor Device Identifier",
   "node": "Recording/Identity (or sharedDimensions)",
   "basis": "role-fallback",
   "scope": "GOC",
   "linkType": "role-level"
  },
  {
   "variable": "NHOID",
   "class": "General Observations",
   "role": "Identifier",
   "ccode": "",
   "label": "Non-Host Organism Identifier",
   "node": "Recording/Identity (or sharedDimensions)",
   "basis": "role-fallback",
   "scope": "GOC",
   "linkType": "role-level"
  },
  {
   "variable": "FETUSID",
   "class": "General Observations",
   "role": "Identifier",
   "ccode": "C170497",
   "label": "Fetus Identifier",
   "node": "Recording/Identity (or sharedDimensions)",
   "basis": "role-fallback",
   "scope": "GOC",
   "linkType": "role-level"
  },
  {
   "variable": "FOCID",
   "class": "General Observations",
   "role": "Identifier",
   "ccode": "",
   "label": "Focus of Study-Specific Interest",
   "node": "Recording/Identity (or sharedDimensions)",
   "basis": "role-fallback",
   "scope": "GOC",
   "linkType": "role-level"
  },
  {
   "variable": "--SEQ",
   "class": "General Observations",
   "role": "Identifier",
   "ccode": "C70710",
   "label": "Sequence Number",
   "node": "/Identity/Sequence",
   "basis": "alias",
   "scope": "GOC",
   "linkType": "precise"
  },
  {
   "variable": "--GRPID",
   "class": "General Observations",
   "role": "Identifier",
   "ccode": "C170996",
   "label": "Group ID",
   "node": "/Identity/GroupId",
   "basis": "alias",
   "scope": "GOC",
   "linkType": "precise"
  },
  {
   "variable": "--REFID",
   "class": "General Observations",
   "role": "Identifier",
   "ccode": "C82531",
   "label": "Reference ID",
   "node": "/Identity/ReferenceId",
   "basis": "alias",
   "scope": "GOC",
   "linkType": "precise"
  },
  {
   "variable": "--RECID",
   "class": "General Observations",
   "role": "Identifier",
   "ccode": "",
   "label": "Invariant Record Identifier",
   "node": "Recording/Identity (or sharedDimensions)",
   "basis": "role-fallback",
   "scope": "GOC",
   "linkType": "role-level"
  },
  {
   "variable": "--SPID",
   "class": "General Observations",
   "role": "Identifier",
   "ccode": "C82530",
   "label": "Sponsor-Defined Identifier",
   "node": "Recording/Identity (or sharedDimensions)",
   "basis": "role-fallback",
   "scope": "GOC",
   "linkType": "role-level"
  },
  {
   "variable": "--LNKID",
   "class": "General Observations",
   "role": "Identifier",
   "ccode": "C117050",
   "label": "Link ID",
   "node": "/Identity/LinkId",
   "basis": "alias",
   "scope": "GOC",
   "linkType": "precise"
  },
  {
   "variable": "--LNKGRP",
   "class": "General Observations",
   "role": "Identifier",
   "ccode": "C117049",
   "label": "Link Group ID",
   "node": "/Identity/LinkId",
   "basis": "alias",
   "scope": "GOC",
   "linkType": "precise"
  },
  {
   "variable": "--BEATNO",
   "class": "General Observations",
   "role": "Identifier",
   "ccode": "",
   "label": "ECG Beat Number",
   "node": "Recording/Identity (or sharedDimensions)",
   "basis": "role-fallback",
   "scope": "GOC",
   "linkType": "role-level"
  },
  {
   "variable": "VISITNUM",
   "class": "General Observations",
   "role": "Timing",
   "ccode": "C83101",
   "label": "Visit Number",
   "node": "sharedDimensions/Visit",
   "basis": "shared-dimension",
   "scope": "GOC",
   "linkType": "precise"
  },
  {
   "variable": "VISIT",
   "class": "General Observations",
   "role": "Timing",
   "ccode": "C171010",
   "label": "Visit Name",
   "node": "sharedDimensions/Visit",
   "basis": "shared-dimension",
   "scope": "GOC",
   "linkType": "precise"
  },
  {
   "variable": "VISITDY",
   "class": "General Observations",
   "role": "Timing",
   "ccode": "C171011",
   "label": "Planned Study Day of Visit",
   "node": "sharedDimensions/Visit",
   "basis": "shared-dimension",
   "scope": "GOC",
   "linkType": "precise"
  },
  {
   "variable": "TAETORD",
   "class": "General Observations",
   "role": "Timing",
   "ccode": "C83438",
   "label": "Planned Order of Element Within Arm",
   "node": "Recording/Timing",
   "basis": "role-fallback",
   "scope": "GOC",
   "linkType": "role-level"
  },
  {
   "variable": "EPOCH",
   "class": "General Observations",
   "role": "Timing",
   "ccode": "C71738",
   "label": "Epoch",
   "node": "Recording/Timing",
   "basis": "role-fallback",
   "scope": "GOC",
   "linkType": "role-level"
  },
  {
   "variable": "RPHASE",
   "class": "General Observations",
   "role": "Timing",
   "ccode": "",
   "label": "Repro Phase",
   "node": "Recording/Timing",
   "basis": "role-fallback",
   "scope": "GOC",
   "linkType": "role-level"
  },
  {
   "variable": "RPPLDY",
   "class": "General Observations",
   "role": "Timing",
   "ccode": "C170506",
   "label": "Planned Repro Phase Day of Observation",
   "node": "Recording/Timing",
   "basis": "role-fallback",
   "scope": "GOC",
   "linkType": "role-level"
  },
  {
   "variable": "RPPLSTDY",
   "class": "General Observations",
   "role": "Timing",
   "ccode": "C170508",
   "label": "Planned Repro Phase Day of Obs Start",
   "node": "Recording/Timing",
   "basis": "role-fallback",
   "scope": "GOC",
   "linkType": "role-level"
  },
  {
   "variable": "RPPLENDY",
   "class": "General Observations",
   "role": "Timing",
   "ccode": "C170507",
   "label": "Planned Repro Phase Day of Obs End",
   "node": "Recording/Timing",
   "basis": "role-fallback",
   "scope": "GOC",
   "linkType": "role-level"
  },
  {
   "variable": "--DTC",
   "class": "General Observations",
   "role": "Timing",
   "ccode": "C82515",
   "label": "Date/Time of Collection",
   "node": "/Timing/effective/instant",
   "basis": "alias",
   "scope": "GOC",
   "linkType": "precise"
  },
  {
   "variable": "--STDTC",
   "class": "General Observations",
   "role": "Timing",
   "ccode": "C82517",
   "label": "Start Date/Time of Observation",
   "node": "/Timing/effective/period/start",
   "basis": "alias",
   "scope": "GOC",
   "linkType": "precise"
  },
  {
   "variable": "--ENDTC",
   "class": "General Observations",
   "role": "Timing",
   "ccode": "C82516",
   "label": "End Date/Time of Observation",
   "node": "/Timing/effective/period/end",
   "basis": "alias",
   "scope": "GOC",
   "linkType": "precise"
  },
  {
   "variable": "--DY",
   "class": "General Observations",
   "role": "Timing",
   "ccode": "C170993",
   "label": "Study Day of Visit/Collection/Exam",
   "node": "/Timing/StudyDay",
   "basis": "alias",
   "scope": "GOC",
   "linkType": "precise"
  },
  {
   "variable": "--STDY",
   "class": "General Observations",
   "role": "Timing",
   "ccode": "C171005",
   "label": "Study Day of Start of Observation",
   "node": "/Timing/StudyDay",
   "basis": "alias",
   "scope": "GOC",
   "linkType": "precise"
  },
  {
   "variable": "--ENDY",
   "class": "General Observations",
   "role": "Timing",
   "ccode": "C170995",
   "label": "Study Day of End of Observation",
   "node": "Recording/Timing",
   "basis": "role-fallback",
   "scope": "GOC",
   "linkType": "role-level"
  },
  {
   "variable": "--NOMDY",
   "class": "General Observations",
   "role": "Timing",
   "ccode": "C170498",
   "label": "Nominal Study Day for Tabulations",
   "node": "Recording/Timing",
   "basis": "role-fallback",
   "scope": "GOC",
   "linkType": "role-level"
  },
  {
   "variable": "--NOMLBL",
   "class": "General Observations",
   "role": "Timing",
   "ccode": "C170499",
   "label": "Label for Nominal Study Day",
   "node": "Recording/Timing",
   "basis": "role-fallback",
   "scope": "GOC",
   "linkType": "role-level"
  },
  {
   "variable": "--RPDY",
   "class": "General Observations",
   "role": "Timing",
   "ccode": "C170504",
   "label": "Actual Repro Phase Day of Observation",
   "node": "Recording/Timing",
   "basis": "role-fallback",
   "scope": "GOC",
   "linkType": "role-level"
  },
  {
   "variable": "--RPSTDY",
   "class": "General Observations",
   "role": "Timing",
   "ccode": "C170509",
   "label": "Actual Repro Phase Day of Obs Start",
   "node": "Recording/Timing",
   "basis": "role-fallback",
   "scope": "GOC",
   "linkType": "role-level"
  },
  {
   "variable": "--RPENDY",
   "class": "General Observations",
   "role": "Timing",
   "ccode": "C170505",
   "label": "Actual Repro Phase Day of Obs End",
   "node": "Recording/Timing",
   "basis": "role-fallback",
   "scope": "GOC",
   "linkType": "role-level"
  },
  {
   "variable": "--XDY",
   "class": "General Observations",
   "role": "Timing",
   "ccode": "",
   "label": "Day of Obs Relative to Exposure",
   "node": "Recording/Timing",
   "basis": "role-fallback",
   "scope": "GOC",
   "linkType": "role-level"
  },
  {
   "variable": "--XSTDY",
   "class": "General Observations",
   "role": "Timing",
   "ccode": "",
   "label": "Start Day of Obs Relative to Exposure",
   "node": "Recording/Timing",
   "basis": "role-fallback",
   "scope": "GOC",
   "linkType": "role-level"
  },
  {
   "variable": "--XENDY",
   "class": "General Observations",
   "role": "Timing",
   "ccode": "",
   "label": "End Day of Obs Relative to Exposure",
   "node": "Recording/Timing",
   "basis": "role-fallback",
   "scope": "GOC",
   "linkType": "role-level"
  },
  {
   "variable": "--CHDY",
   "class": "General Observations",
   "role": "Timing",
   "ccode": "",
   "label": "Day of Obs Rel to Challenge Agent",
   "node": "Recording/Timing",
   "basis": "role-fallback",
   "scope": "GOC",
   "linkType": "role-level"
  },
  {
   "variable": "--CHSTDY",
   "class": "General Observations",
   "role": "Timing",
   "ccode": "",
   "label": "Start Day of Obs Rel to Challenge Agent",
   "node": "Recording/Timing",
   "basis": "role-fallback",
   "scope": "GOC",
   "linkType": "role-level"
  },
  {
   "variable": "--CHENDY",
   "class": "General Observations",
   "role": "Timing",
   "ccode": "",
   "label": "End Day of Obs Rel to Challenge Agent",
   "node": "Recording/Timing",
   "basis": "role-fallback",
   "scope": "GOC",
   "linkType": "role-level"
  },
  {
   "variable": "--DUR",
   "class": "General Observations",
   "role": "Timing",
   "ccode": "C170992",
   "label": "Collected Duration",
   "node": "/Timing/Duration",
   "basis": "alias",
   "scope": "GOC",
   "linkType": "precise"
  },
  {
   "variable": "--TPT",
   "class": "General Observations",
   "role": "Timing",
   "ccode": "C171029",
   "label": "Planned Time Point Name",
   "node": "/Timepoint",
   "basis": "alias",
   "scope": "GOC",
   "linkType": "precise"
  },
  {
   "variable": "--TPTNUM",
   "class": "General Observations",
   "role": "Timing",
   "ccode": "C82545",
   "label": "Planned Time Point Number",
   "node": "/Timepoint",
   "basis": "alias",
   "scope": "GOC",
   "linkType": "precise"
  },
  {
   "variable": "--ELTM",
   "class": "General Observations",
   "role": "Timing",
   "ccode": "C170994",
   "label": "Planned Elapsed Time from Time Point Ref",
   "node": "Recording/Timing",
   "basis": "role-fallback",
   "scope": "GOC",
   "linkType": "role-level"
  },
  {
   "variable": "--TPTREF",
   "class": "General Observations",
   "role": "Timing",
   "ccode": "C171030",
   "label": "Time Point Reference",
   "node": "Recording/Timing",
   "basis": "role-fallback",
   "scope": "GOC",
   "linkType": "role-level"
  },
  {
   "variable": "--RFTDTC",
   "class": "General Observations",
   "role": "Timing",
   "ccode": "C82518",
   "label": "Date/Time of Reference Time Point",
   "node": "Recording/Timing",
   "basis": "role-fallback",
   "scope": "GOC",
   "linkType": "role-level"
  },
  {
   "variable": "--STRF",
   "class": "General Observations",
   "role": "Timing",
   "ccode": "C82559",
   "label": "Start Relative to Reference Period",
   "node": "Recording/Timing",
   "basis": "role-fallback",
   "scope": "GOC",
   "linkType": "role-level"
  },
  {
   "variable": "--ENRF",
   "class": "General Observations",
   "role": "Timing",
   "ccode": "C82557",
   "label": "End Relative to Reference Period",
   "node": "/Timing/RelativeTiming",
   "basis": "alias",
   "scope": "GOC",
   "linkType": "precise"
  },
  {
   "variable": "--EVLINT",
   "class": "General Observations",
   "role": "Timing",
   "ccode": "C82534",
   "label": "Evaluation Interval",
   "node": "Recording/Timing",
   "basis": "role-fallback",
   "scope": "GOC",
   "linkType": "role-level"
  },
  {
   "variable": "--EVINTX",
   "class": "General Observations",
   "role": "Timing",
   "ccode": "C117044",
   "label": "Evaluation Interval Text",
   "node": "Recording/Timing",
   "basis": "role-fallback",
   "scope": "GOC",
   "linkType": "role-level"
  },
  {
   "variable": "--STRTPT",
   "class": "General Observations",
   "role": "Timing",
   "ccode": "C82560",
   "label": "Start Relative to Reference Time Point",
   "node": "Recording/Timing",
   "basis": "role-fallback",
   "scope": "GOC",
   "linkType": "role-level"
  },
  {
   "variable": "--STTPT",
   "class": "General Observations",
   "role": "Timing",
   "ccode": "C82575",
   "label": "Start Reference Time Point",
   "node": "Recording/Timing",
   "basis": "role-fallback",
   "scope": "GOC",
   "linkType": "role-level"
  },
  {
   "variable": "--ENRTPT",
   "class": "General Observations",
   "role": "Timing",
   "ccode": "C82558",
   "label": "End Relative to Reference Time Point",
   "node": "/Timing/RelativeTiming",
   "basis": "alias",
   "scope": "GOC",
   "linkType": "precise"
  },
  {
   "variable": "--ENTPT",
   "class": "General Observations",
   "role": "Timing",
   "ccode": "C82574",
   "label": "End Reference Time Point",
   "node": "/Timing/RelativeTiming",
   "basis": "alias",
   "scope": "GOC",
   "linkType": "precise"
  },
  {
   "variable": "MIDS",
   "class": "General Observations",
   "role": "Timing",
   "ccode": "",
   "label": "Disease Milestone Instance Name",
   "node": "Recording/Timing",
   "basis": "role-fallback",
   "scope": "GOC",
   "linkType": "role-level"
  },
  {
   "variable": "RELMIDS",
   "class": "General Observations",
   "role": "Timing",
   "ccode": "",
   "label": "Temporal Relation to Milestone Instance",
   "node": "Recording/Timing",
   "basis": "role-fallback",
   "scope": "GOC",
   "linkType": "role-level"
  },
  {
   "variable": "MIDSDTC",
   "class": "General Observations",
   "role": "Timing",
   "ccode": "",
   "label": "Disease Milestone Instance Date/Time",
   "node": "Recording/Timing",
   "basis": "role-fallback",
   "scope": "GOC",
   "linkType": "role-level"
  },
  {
   "variable": "--STINT",
   "class": "General Observations",
   "role": "Timing",
   "ccode": "C117061",
   "label": "Planned Start of Assessment Interval",
   "node": "Recording/Timing",
   "basis": "role-fallback",
   "scope": "GOC",
   "linkType": "role-level"
  },
  {
   "variable": "--ENINT",
   "class": "General Observations",
   "role": "Timing",
   "ccode": "C117042",
   "label": "Planned End of Assessment Interval",
   "node": "Recording/Timing",
   "basis": "role-fallback",
   "scope": "GOC",
   "linkType": "role-level"
  },
  {
   "variable": "--DETECT",
   "class": "General Observations",
   "role": "Timing",
   "ccode": "C117041",
   "label": "Time in Days to Detection",
   "node": "Recording/Timing",
   "basis": "role-fallback",
   "scope": "GOC",
   "linkType": "role-level"
  },
  {
   "variable": "--PTFL",
   "class": "General Observations",
   "role": "Timing",
   "ccode": "",
   "label": "Point in Time Flag",
   "node": "Recording/Timing",
   "basis": "role-fallback",
   "scope": "GOC",
   "linkType": "role-level"
  },
  {
   "variable": "--PDUR",
   "class": "General Observations",
   "role": "Timing",
   "ccode": "",
   "label": "Planned Duration",
   "node": "Recording/Timing",
   "basis": "role-fallback",
   "scope": "GOC",
   "linkType": "role-level"
  },
  {
   "variable": "--TRT",
   "class": "Interventions",
   "role": "Topic",
   "ccode": "C82542",
   "label": "Name of Treatment",
   "node": "/Topic",
   "basis": "alias",
   "scope": "GOC",
   "linkType": "precise"
  },
  {
   "variable": "--MODIFY",
   "class": "Interventions",
   "role": "Synonym Qualifier",
   "ccode": "C170998",
   "label": "Modified Treatment Name",
   "node": "Recording/Topic/TopicDecode (synonym)",
   "basis": "role-fallback",
   "scope": "GOC",
   "linkType": "role-level"
  },
  {
   "variable": "--DECOD",
   "class": "Interventions",
   "role": "Synonym Qualifier",
   "ccode": "C170991",
   "label": "Standardized Treatment Name",
   "node": "/Topic/TopicDecode",
   "basis": "alias",
   "scope": "GOC",
   "linkType": "precise"
  },
  {
   "variable": "--MOOD",
   "class": "Interventions",
   "role": "Record Qualifier",
   "ccode": "C117051",
   "label": "Mood",
   "node": "Recording/<qualifier> (record qualifier)",
   "basis": "role-fallback",
   "scope": "GOC",
   "linkType": "role-level"
  },
  {
   "variable": "--CAT",
   "class": "Interventions",
   "role": "Grouping Qualifier",
   "ccode": "C25372",
   "label": "Category",
   "node": "/Category",
   "basis": "alias",
   "scope": "GOC",
   "linkType": "precise"
  },
  {
   "variable": "--SCAT",
   "class": "Interventions",
   "role": "Grouping Qualifier",
   "ccode": "",
   "label": "Subcategory",
   "node": "/Category/Subcategory",
   "basis": "alias",
   "scope": "GOC",
   "linkType": "precise"
  },
  {
   "variable": "--PRESP",
   "class": "Interventions",
   "role": "Variable Qualifier",
   "ccode": "C82510",
   "label": "Pre-Specified",
   "node": "/PreSpecified",
   "basis": "alias",
   "scope": "GOC",
   "linkType": "precise"
  },
  {
   "variable": "--OCCUR",
   "class": "Interventions",
   "role": "Record Qualifier",
   "ccode": "C171000",
   "label": "Occurrence Indicator",
   "node": "/Occurrence",
   "basis": "alias",
   "scope": "GOC",
   "linkType": "precise"
  },
  {
   "variable": "--REASOC",
   "class": "Interventions",
   "role": "Record Qualifier",
   "ccode": "",
   "label": "Reason for Occur Value",
   "node": "Recording/<qualifier> (record qualifier)",
   "basis": "role-fallback",
   "scope": "GOC",
   "linkType": "role-level"
  },
  {
   "variable": "--STAT",
   "class": "Interventions",
   "role": "Record Qualifier",
   "ccode": "",
   "label": "Completion Status",
   "node": "Recording/<qualifier> (record qualifier)",
   "basis": "role-fallback",
   "scope": "GOC",
   "linkType": "role-level"
  },
  {
   "variable": "--REASND",
   "class": "Interventions",
   "role": "Record Qualifier",
   "ccode": "C82556",
   "label": "Reason Not Done",
   "node": "Recording/<qualifier> (record qualifier)",
   "basis": "role-fallback",
   "scope": "GOC",
   "linkType": "role-level"
  },
  {
   "variable": "--CNTMOD",
   "class": "Interventions",
   "role": "Record Qualifier",
   "ccode": "",
   "label": "Contact Mode",
   "node": "Recording/<qualifier> (record qualifier)",
   "basis": "role-fallback",
   "scope": "GOC",
   "linkType": "role-level"
  },
  {
   "variable": "--EPCHGI",
   "class": "Interventions",
   "role": "Record Qualifier",
   "ccode": "",
   "label": "Epi/Pandemic Related Change Indicator",
   "node": "Recording/<qualifier> (record qualifier)",
   "basis": "role-fallback",
   "scope": "GOC",
   "linkType": "role-level"
  },
  {
   "variable": "--INDC",
   "class": "Interventions",
   "role": "Record Qualifier",
   "ccode": "C41184",
   "label": "Indication",
   "node": "/Indication",
   "basis": "alias",
   "scope": "GOC",
   "linkType": "precise"
  },
  {
   "variable": "--CLAS",
   "class": "Interventions",
   "role": "Variable Qualifier",
   "ccode": "C170987",
   "label": "Class",
   "node": "Recording/<qualifier> (variable qualifier)",
   "basis": "role-fallback",
   "scope": "GOC",
   "linkType": "role-level"
  },
  {
   "variable": "--CLASCD",
   "class": "Interventions",
   "role": "Variable Qualifier",
   "ccode": "C170988",
   "label": "Class Code",
   "node": "Recording/<qualifier> (variable qualifier)",
   "basis": "role-fallback",
   "scope": "GOC",
   "linkType": "role-level"
  },
  {
   "variable": "--DOSE",
   "class": "Interventions",
   "role": "Record Qualifier",
   "ccode": "C25488",
   "label": "Dose",
   "node": "/Dose",
   "basis": "alias",
   "scope": "GOC",
   "linkType": "precise"
  },
  {
   "variable": "--DOSTXT",
   "class": "Interventions",
   "role": "Record Qualifier",
   "ccode": "C70961",
   "label": "Dose Description",
   "node": "/Dose",
   "basis": "alias",
   "scope": "GOC",
   "linkType": "precise"
  },
  {
   "variable": "--DOSU",
   "class": "Interventions",
   "role": "Variable Qualifier",
   "ccode": "C73558",
   "label": "Dose Units",
   "node": "/Dose/DoseUnit",
   "basis": "alias",
   "scope": "GOC",
   "linkType": "precise"
  },
  {
   "variable": "--TDOSD",
   "class": "Interventions",
   "role": "Record Qualifier",
   "ccode": "",
   "label": "Toxic/Physiologic Dose Descr",
   "node": "Recording/<qualifier> (record qualifier)",
   "basis": "role-fallback",
   "scope": "GOC",
   "linkType": "role-level"
  },
  {
   "variable": "--FTDOSD",
   "class": "Interventions",
   "role": "Variable Qualifier",
   "ccode": "",
   "label": "Factor for Toxic/Physiologic Dose Descr",
   "node": "Recording/<qualifier> (variable qualifier)",
   "basis": "role-fallback",
   "scope": "GOC",
   "linkType": "role-level"
  },
  {
   "variable": "--DOSFRM",
   "class": "Interventions",
   "role": "Variable Qualifier",
   "ccode": "C42636",
   "label": "Dose Form",
   "node": "/Dose/DoseForm",
   "basis": "alias",
   "scope": "GOC",
   "linkType": "precise"
  },
  {
   "variable": "--DOSFRQ",
   "class": "Interventions",
   "role": "Record Qualifier",
   "ccode": "C15682",
   "label": "Dosing Frequency per Interval",
   "node": "/Dose/Frequency",
   "basis": "alias",
   "scope": "GOC",
   "linkType": "precise"
  },
  {
   "variable": "--DOSTOT",
   "class": "Interventions",
   "role": "Record Qualifier",
   "ccode": "C70888",
   "label": "Total Daily Dose",
   "node": "Recording/<qualifier> (record qualifier)",
   "basis": "role-fallback",
   "scope": "GOC",
   "linkType": "role-level"
  },
  {
   "variable": "--DOSRGM",
   "class": "Interventions",
   "role": "Record Qualifier",
   "ccode": "C71137",
   "label": "Intended Dose Regimen",
   "node": "Recording/<qualifier> (record qualifier)",
   "basis": "role-fallback",
   "scope": "GOC",
   "linkType": "role-level"
  },
  {
   "variable": "--ROUTE",
   "class": "Interventions",
   "role": "Record Qualifier",
   "ccode": "C38114",
   "label": "Route of Administration",
   "node": "/Route",
   "basis": "alias",
   "scope": "GOC",
   "linkType": "precise"
  },
  {
   "variable": "--LOT",
   "class": "Interventions",
   "role": "Record Qualifier",
   "ccode": "C70848",
   "label": "Lot Number",
   "node": "Recording/<qualifier> (record qualifier)",
   "basis": "role-fallback",
   "scope": "GOC",
   "linkType": "role-level"
  },
  {
   "variable": "--LOC",
   "class": "Interventions",
   "role": "Record Qualifier",
   "ccode": "",
   "label": "Location of Administration",
   "node": "/Location",
   "basis": "alias",
   "scope": "GOC",
   "linkType": "precise"
  },
  {
   "variable": "--METHOD",
   "class": "Interventions",
   "role": "Record Qualifier",
   "ccode": "",
   "label": "Method of Administration",
   "node": "/Method",
   "basis": "alias",
   "scope": "GOC",
   "linkType": "precise"
  },
  {
   "variable": "--LAT",
   "class": "Interventions",
   "role": "Variable Qualifier",
   "ccode": "",
   "label": "Laterality",
   "node": "/Location/Laterality",
   "basis": "alias",
   "scope": "GOC",
   "linkType": "precise"
  },
  {
   "variable": "--DIR",
   "class": "Interventions",
   "role": "Variable Qualifier",
   "ccode": "",
   "label": "Directionality",
   "node": "/Location/Directionality",
   "basis": "alias",
   "scope": "GOC",
   "linkType": "precise"
  },
  {
   "variable": "--PORTOT",
   "class": "Interventions",
   "role": "Variable Qualifier",
   "ccode": "",
   "label": "Portion or Totality",
   "node": "Recording/<qualifier> (variable qualifier)",
   "basis": "role-fallback",
   "scope": "GOC",
   "linkType": "role-level"
  },
  {
   "variable": "--FAST",
   "class": "Interventions",
   "role": "Record Qualifier",
   "ccode": "C93566",
   "label": "Fasting Status",
   "node": "/FastingStatus",
   "basis": "alias",
   "scope": "GOC",
   "linkType": "precise"
  },
  {
   "variable": "--PSTRG",
   "class": "Interventions",
   "role": "Record Qualifier",
   "ccode": "C53294",
   "label": "Pharmaceutical Strength",
   "node": "Recording/<qualifier> (record qualifier)",
   "basis": "role-fallback",
   "scope": "GOC",
   "linkType": "role-level"
  },
  {
   "variable": "--PSTRGU",
   "class": "Interventions",
   "role": "Variable Qualifier",
   "ccode": "C117055",
   "label": "Pharmaceutical Strength Units",
   "node": "Recording/<qualifier> (variable qualifier)",
   "basis": "role-fallback",
   "scope": "GOC",
   "linkType": "role-level"
  },
  {
   "variable": "--TRTV",
   "class": "Interventions",
   "role": "Record Qualifier",
   "ccode": "C927",
   "label": "Treatment Vehicle",
   "node": "Recording/<qualifier> (record qualifier)",
   "basis": "role-fallback",
   "scope": "GOC",
   "linkType": "role-level"
  },
  {
   "variable": "--VAMT",
   "class": "Interventions",
   "role": "Record Qualifier",
   "ccode": "C82553",
   "label": "Treatment Vehicle Amount",
   "node": "Recording/<qualifier> (record qualifier)",
   "basis": "role-fallback",
   "scope": "GOC",
   "linkType": "role-level"
  },
  {
   "variable": "--VAMTU",
   "class": "Interventions",
   "role": "Variable Qualifier",
   "ccode": "C82583",
   "label": "Treatment Vehicle Amount Units",
   "node": "Recording/<qualifier> (variable qualifier)",
   "basis": "role-fallback",
   "scope": "GOC",
   "linkType": "role-level"
  },
  {
   "variable": "--ADJ",
   "class": "Interventions",
   "role": "Record Qualifier",
   "ccode": "C82555",
   "label": "Reason for Dose Adjustment",
   "node": "Recording/<qualifier> (record qualifier)",
   "basis": "role-fallback",
   "scope": "GOC",
   "linkType": "role-level"
  },
  {
   "variable": "--RSDISC",
   "class": "Interventions",
   "role": "Record Qualifier",
   "ccode": "",
   "label": "Reason for Treatment Discontinuation",
   "node": "Recording/<qualifier> (record qualifier)",
   "basis": "role-fallback",
   "scope": "GOC",
   "linkType": "role-level"
  },
  {
   "variable": "--USCHFL",
   "class": "Interventions",
   "role": "Record Qualifier",
   "ccode": "C170510",
   "label": "Unscheduled Flag",
   "node": "Recording/<qualifier> (record qualifier)",
   "basis": "role-fallback",
   "scope": "GOC",
   "linkType": "role-level"
  },
  {
   "variable": "--RSTIND",
   "class": "Interventions",
   "role": "Record Qualifier",
   "ccode": "",
   "label": "Restraint Indicator",
   "node": "Recording/<qualifier> (record qualifier)",
   "basis": "role-fallback",
   "scope": "GOC",
   "linkType": "role-level"
  },
  {
   "variable": "--RSTMOD",
   "class": "Interventions",
   "role": "Record Qualifier",
   "ccode": "",
   "label": "Restraint Mode",
   "node": "Recording/<qualifier> (record qualifier)",
   "basis": "role-fallback",
   "scope": "GOC",
   "linkType": "role-level"
  },
  {
   "variable": "--TERM",
   "class": "Events",
   "role": "Topic",
   "ccode": "C82571",
   "label": "Reported Term",
   "node": "/Topic",
   "basis": "alias",
   "scope": "GOC",
   "linkType": "precise"
  },
  {
   "variable": "--MODIFY",
   "class": "Events",
   "role": "Synonym Qualifier",
   "ccode": "C170998",
   "label": "Modified Reported Term",
   "node": "Recording/Topic/TopicDecode (synonym)",
   "basis": "role-fallback",
   "scope": "GOC",
   "linkType": "role-level"
  },
  {
   "variable": "--LLT",
   "class": "Events",
   "role": "Variable Qualifier",
   "ccode": "C71886",
   "label": "Lowest Level Term",
   "node": "Recording/<qualifier> (variable qualifier)",
   "basis": "role-fallback",
   "scope": "GOC",
   "linkType": "role-level"
  },
  {
   "variable": "--LLTCD",
   "class": "Events",
   "role": "Variable Qualifier",
   "ccode": "C117048",
   "label": "Lowest Level Term Code",
   "node": "Recording/<qualifier> (variable qualifier)",
   "basis": "role-fallback",
   "scope": "GOC",
   "linkType": "role-level"
  },
  {
   "variable": "--DECOD",
   "class": "Events",
   "role": "Synonym Qualifier",
   "ccode": "C170991",
   "label": "Dictionary-Derived Term",
   "node": "/Topic/TopicDecode",
   "basis": "alias",
   "scope": "GOC",
   "linkType": "precise"
  },
  {
   "variable": "--EVDTYP",
   "class": "Events",
   "role": "Variable Qualifier",
   "ccode": "",
   "label": "Medical History Event Date Type",
   "node": "Recording/<qualifier> (variable qualifier)",
   "basis": "role-fallback",
   "scope": "GOC",
   "linkType": "role-level"
  },
  {
   "variable": "--PTCD",
   "class": "Events",
   "role": "Variable Qualifier",
   "ccode": "C117056",
   "label": "Preferred Term Code",
   "node": "Recording/<qualifier> (variable qualifier)",
   "basis": "role-fallback",
   "scope": "GOC",
   "linkType": "role-level"
  },
  {
   "variable": "--HLT",
   "class": "Events",
   "role": "Variable Qualifier",
   "ccode": "C71880",
   "label": "High Level Term",
   "node": "Recording/<qualifier> (variable qualifier)",
   "basis": "role-fallback",
   "scope": "GOC",
   "linkType": "role-level"
  },
  {
   "variable": "--HLTCD",
   "class": "Events",
   "role": "Variable Qualifier",
   "ccode": "C117047",
   "label": "High Level Term Code",
   "node": "Recording/<qualifier> (variable qualifier)",
   "basis": "role-fallback",
   "scope": "GOC",
   "linkType": "role-level"
  },
  {
   "variable": "--HLGT",
   "class": "Events",
   "role": "Variable Qualifier",
   "ccode": "C71889",
   "label": "High Level Group Term",
   "node": "Recording/<qualifier> (variable qualifier)",
   "basis": "role-fallback",
   "scope": "GOC",
   "linkType": "role-level"
  },
  {
   "variable": "--HLGTCD",
   "class": "Events",
   "role": "Variable Qualifier",
   "ccode": "C117046",
   "label": "High Level Group Term Code",
   "node": "Recording/<qualifier> (variable qualifier)",
   "basis": "role-fallback",
   "scope": "GOC",
   "linkType": "role-level"
  },
  {
   "variable": "--CAT",
   "class": "Events",
   "role": "Grouping Qualifier",
   "ccode": "C25372",
   "label": "Category",
   "node": "/Category",
   "basis": "alias",
   "scope": "GOC",
   "linkType": "precise"
  },
  {
   "variable": "--SCAT",
   "class": "Events",
   "role": "Grouping Qualifier",
   "ccode": "",
   "label": "Subcategory",
   "node": "/Category/Subcategory",
   "basis": "alias",
   "scope": "GOC",
   "linkType": "precise"
  },
  {
   "variable": "--PRESP",
   "class": "Events",
   "role": "Variable Qualifier",
   "ccode": "C82510",
   "label": "Pre-Specified",
   "node": "/PreSpecified",
   "basis": "alias",
   "scope": "GOC",
   "linkType": "precise"
  },
  {
   "variable": "--OCCUR",
   "class": "Events",
   "role": "Record Qualifier",
   "ccode": "C171000",
   "label": "Occurrence Indicator",
   "node": "/Occurrence",
   "basis": "alias",
   "scope": "GOC",
   "linkType": "precise"
  },
  {
   "variable": "--REASOC",
   "class": "Events",
   "role": "Record Qualifier",
   "ccode": "",
   "label": "Reason for Occur Value",
   "node": "Recording/<qualifier> (record qualifier)",
   "basis": "role-fallback",
   "scope": "GOC",
   "linkType": "role-level"
  },
  {
   "variable": "--STAT",
   "class": "Events",
   "role": "Record Qualifier",
   "ccode": "",
   "label": "Completion Status",
   "node": "Recording/<qualifier> (record qualifier)",
   "basis": "role-fallback",
   "scope": "GOC",
   "linkType": "role-level"
  },
  {
   "variable": "--REASND",
   "class": "Events",
   "role": "Record Qualifier",
   "ccode": "C82556",
   "label": "Reason Not Done",
   "node": "Recording/<qualifier> (record qualifier)",
   "basis": "role-fallback",
   "scope": "GOC",
   "linkType": "role-level"
  },
  {
   "variable": "--BODSYS",
   "class": "Events",
   "role": "Record Qualifier",
   "ccode": "C170986",
   "label": "Body System or Organ Class",
   "node": "Recording/<qualifier> (record qualifier)",
   "basis": "role-fallback",
   "scope": "GOC",
   "linkType": "role-level"
  },
  {
   "variable": "--BDSYCD",
   "class": "Events",
   "role": "Variable Qualifier",
   "ccode": "C170985",
   "label": "Body System or Organ Class Code",
   "node": "Recording/<qualifier> (variable qualifier)",
   "basis": "role-fallback",
   "scope": "GOC",
   "linkType": "role-level"
  },
  {
   "variable": "--SOC",
   "class": "Events",
   "role": "Variable Qualifier",
   "ccode": "C71888",
   "label": "Primary System Organ Class",
   "node": "Recording/<qualifier> (variable qualifier)",
   "basis": "role-fallback",
   "scope": "GOC",
   "linkType": "role-level"
  },
  {
   "variable": "--SOCCD",
   "class": "Events",
   "role": "Variable Qualifier",
   "ccode": "C117059",
   "label": "Primary System Organ Class Code",
   "node": "Recording/<qualifier> (variable qualifier)",
   "basis": "role-fallback",
   "scope": "GOC",
   "linkType": "role-level"
  },
  {
   "variable": "--CNTMOD",
   "class": "Events",
   "role": "Record Qualifier",
   "ccode": "",
   "label": "Contact Mode",
   "node": "Recording/<qualifier> (record qualifier)",
   "basis": "role-fallback",
   "scope": "GOC",
   "linkType": "role-level"
  },
  {
   "variable": "--EPCHGI",
   "class": "Events",
   "role": "Record Qualifier",
   "ccode": "",
   "label": "Epi/Pandemic Related Change Indicator",
   "node": "Recording/<qualifier> (record qualifier)",
   "basis": "role-fallback",
   "scope": "GOC",
   "linkType": "role-level"
  },
  {
   "variable": "--LOC",
   "class": "Events",
   "role": "Record Qualifier",
   "ccode": "",
   "label": "Location of Event",
   "node": "/Location",
   "basis": "alias",
   "scope": "GOC",
   "linkType": "precise"
  },
  {
   "variable": "--LAT",
   "class": "Events",
   "role": "Variable Qualifier",
   "ccode": "",
   "label": "Laterality",
   "node": "/Location/Laterality",
   "basis": "alias",
   "scope": "GOC",
   "linkType": "precise"
  },
  {
   "variable": "--DIR",
   "class": "Events",
   "role": "Variable Qualifier",
   "ccode": "",
   "label": "Directionality",
   "node": "/Location/Directionality",
   "basis": "alias",
   "scope": "GOC",
   "linkType": "precise"
  },
  {
   "variable": "--PORTOT",
   "class": "Events",
   "role": "Variable Qualifier",
   "ccode": "",
   "label": "Portion or Totality",
   "node": "Recording/<qualifier> (variable qualifier)",
   "basis": "role-fallback",
   "scope": "GOC",
   "linkType": "role-level"
  },
  {
   "variable": "--PARTY",
   "class": "Events",
   "role": "Record Qualifier",
   "ccode": "C117052",
   "label": "Accountable Party",
   "node": "Recording/<qualifier> (record qualifier)",
   "basis": "role-fallback",
   "scope": "GOC",
   "linkType": "role-level"
  },
  {
   "variable": "--PRTYID",
   "class": "Events",
   "role": "Variable Qualifier",
   "ccode": "C117054",
   "label": "Identification of Accountable Party",
   "node": "Recording/<qualifier> (variable qualifier)",
   "basis": "role-fallback",
   "scope": "GOC",
   "linkType": "role-level"
  },
  {
   "variable": "--SEV",
   "class": "Events",
   "role": "Record Qualifier",
   "ccode": "C25676",
   "label": "Severity/Intensity",
   "node": "/Severity",
   "basis": "alias",
   "scope": "GOC",
   "linkType": "precise"
  },
  {
   "variable": "--SER",
   "class": "Events",
   "role": "Record Qualifier",
   "ccode": "C82578",
   "label": "Serious Event",
   "node": "/Seriousness",
   "basis": "alias",
   "scope": "GOC",
   "linkType": "precise"
  },
  {
   "variable": "--ACN",
   "class": "Events",
   "role": "Record Qualifier",
   "ccode": "C49499",
   "label": "Action Taken with Study Treatment",
   "node": "/ActionTaken",
   "basis": "alias",
   "scope": "GOC",
   "linkType": "precise"
  },
  {
   "variable": "--ACNOTH",
   "class": "Events",
   "role": "Record Qualifier",
   "ccode": "C82509",
   "label": "Other Action Taken",
   "node": "/ActionTaken",
   "basis": "alias",
   "scope": "GOC",
   "linkType": "precise"
  },
  {
   "variable": "--ACNDEV",
   "class": "Events",
   "role": "Record Qualifier",
   "ccode": "C117037",
   "label": "Action Taken with Device",
   "node": "Recording/<qualifier> (record qualifier)",
   "basis": "role-fallback",
   "scope": "GOC",
   "linkType": "role-level"
  },
  {
   "variable": "--REL",
   "class": "Events",
   "role": "Record Qualifier",
   "ccode": "C103163",
   "label": "Causality",
   "node": "Recording/<qualifier> (record qualifier)",
   "basis": "role-fallback",
   "scope": "GOC",
   "linkType": "role-level"
  },
  {
   "variable": "--RLDEV",
   "class": "Events",
   "role": "Record Qualifier",
   "ccode": "",
   "label": "Relationship of Event to Device",
   "node": "Recording/<qualifier> (record qualifier)",
   "basis": "role-fallback",
   "scope": "GOC",
   "linkType": "role-level"
  },
  {
   "variable": "--RELNST",
   "class": "Events",
   "role": "Record Qualifier",
   "ccode": "C82564",
   "label": "Relationship to Non-Study Treatment",
   "node": "Recording/<qualifier> (record qualifier)",
   "basis": "role-fallback",
   "scope": "GOC",
   "linkType": "role-level"
  },
  {
   "variable": "--PATT",
   "class": "Events",
   "role": "Record Qualifier",
   "ccode": "C82550",
   "label": "Pattern of Event",
   "node": "Recording/<qualifier> (record qualifier)",
   "basis": "role-fallback",
   "scope": "GOC",
   "linkType": "role-level"
  },
  {
   "variable": "--OUT",
   "class": "Events",
   "role": "Record Qualifier",
   "ccode": "C171001",
   "label": "Outcome of Event",
   "node": "/Outcome",
   "basis": "alias",
   "scope": "GOC",
   "linkType": "precise"
  },
  {
   "variable": "--SCAN",
   "class": "Events",
   "role": "Record Qualifier",
   "ccode": "C82561",
   "label": "Involves Cancer",
   "node": "Recording/<qualifier> (record qualifier)",
   "basis": "role-fallback",
   "scope": "GOC",
   "linkType": "role-level"
  },
  {
   "variable": "--SCONG",
   "class": "Events",
   "role": "Record Qualifier",
   "ccode": "C2849",
   "label": "Congenital Anomaly or Birth Defect",
   "node": "Recording/<qualifier> (record qualifier)",
   "basis": "role-fallback",
   "scope": "GOC",
   "linkType": "role-level"
  },
  {
   "variable": "--SDISAB",
   "class": "Events",
   "role": "Record Qualifier",
   "ccode": "C68606",
   "label": "Persist or Signif Disability/Incapacity",
   "node": "Recording/<qualifier> (record qualifier)",
   "basis": "role-fallback",
   "scope": "GOC",
   "linkType": "role-level"
  },
  {
   "variable": "--SDTH",
   "class": "Events",
   "role": "Record Qualifier",
   "ccode": "C82549",
   "label": "Results in Death",
   "node": "Recording/<qualifier> (record qualifier)",
   "basis": "role-fallback",
   "scope": "GOC",
   "linkType": "role-level"
  },
  {
   "variable": "--SHOSP",
   "class": "Events",
   "role": "Record Qualifier",
   "ccode": "C68605",
   "label": "Requires or Prolongs Hospitalization",
   "node": "Recording/<qualifier> (record qualifier)",
   "basis": "role-fallback",
   "scope": "GOC",
   "linkType": "role-level"
  },
  {
   "variable": "--SLIFE",
   "class": "Events",
   "role": "Record Qualifier",
   "ccode": "C82508",
   "label": "Is Life Threatening",
   "node": "Recording/<qualifier> (record qualifier)",
   "basis": "role-fallback",
   "scope": "GOC",
   "linkType": "role-level"
  },
  {
   "variable": "--SOD",
   "class": "Events",
   "role": "Record Qualifier",
   "ccode": "C82548",
   "label": "Occurred with Overdose",
   "node": "Recording/<qualifier> (record qualifier)",
   "basis": "role-fallback",
   "scope": "GOC",
   "linkType": "role-level"
  },
  {
   "variable": "--SMIE",
   "class": "Events",
   "role": "Record Qualifier",
   "ccode": "C82521",
   "label": "Other Medically Important Serious Event",
   "node": "Recording/<qualifier> (record qualifier)",
   "basis": "role-fallback",
   "scope": "GOC",
   "linkType": "role-level"
  },
  {
   "variable": "--SINTV",
   "class": "Events",
   "role": "Record Qualifier",
   "ccode": "",
   "label": "Needs Intervention to Prevent Impairment",
   "node": "Recording/<qualifier> (record qualifier)",
   "basis": "role-fallback",
   "scope": "GOC",
   "linkType": "role-level"
  },
  {
   "variable": "--UNANT",
   "class": "Events",
   "role": "Record Qualifier",
   "ccode": "",
   "label": "Unanticipated Adverse Device Effect",
   "node": "Recording/<qualifier> (record qualifier)",
   "basis": "role-fallback",
   "scope": "GOC",
   "linkType": "role-level"
  },
  {
   "variable": "--RLPRT",
   "class": "Events",
   "role": "Record Qualifier",
   "ccode": "",
   "label": "Rel of AE to Device-Related Procedure",
   "node": "Recording/<qualifier> (record qualifier)",
   "basis": "role-fallback",
   "scope": "GOC",
   "linkType": "role-level"
  },
  {
   "variable": "--RLPRC",
   "class": "Events",
   "role": "Record Qualifier",
   "ccode": "",
   "label": "Rel of AE to Non-Dev-Rel Study Activity",
   "node": "Recording/<qualifier> (record qualifier)",
   "basis": "role-fallback",
   "scope": "GOC",
   "linkType": "role-level"
  },
  {
   "variable": "--CONTRT",
   "class": "Events",
   "role": "Record Qualifier",
   "ccode": "C170989",
   "label": "Concomitant or Additional Trtmnt Given",
   "node": "Recording/<qualifier> (record qualifier)",
   "basis": "role-fallback",
   "scope": "GOC",
   "linkType": "role-level"
  },
  {
   "variable": "--TOX",
   "class": "Events",
   "role": "Variable Qualifier",
   "ccode": "C27990",
   "label": "Toxicity",
   "node": "Recording/<qualifier> (variable qualifier)",
   "basis": "role-fallback",
   "scope": "GOC",
   "linkType": "role-level"
  },
  {
   "variable": "--TOXGR",
   "class": "Events",
   "role": "Record Qualifier",
   "ccode": "C82528",
   "label": "Toxicity Grade",
   "node": "/Severity/ToxicityGrade",
   "basis": "alias",
   "scope": "GOC",
   "linkType": "precise"
  },
  {
   "variable": "--USCHFL",
   "class": "Events",
   "role": "Record Qualifier",
   "ccode": "C170510",
   "label": "Unscheduled Flag",
   "node": "Recording/<qualifier> (record qualifier)",
   "basis": "role-fallback",
   "scope": "GOC",
   "linkType": "role-level"
  },
  {
   "variable": "--TESTCD",
   "class": "Findings",
   "role": "Topic",
   "ccode": "C82503",
   "label": "Short Name of Measurement, Test, or Exam",
   "node": "/Topic",
   "basis": "alias",
   "scope": "GOC",
   "linkType": "precise"
  },
  {
   "variable": "--TEST",
   "class": "Findings",
   "role": "Synonym Qualifier",
   "ccode": "C82541",
   "label": "Name of Measurement, Test, or Exam",
   "node": "/Topic/TopicDecode",
   "basis": "alias",
   "scope": "GOC",
   "linkType": "precise"
  },
  {
   "variable": "--SBMRKS",
   "class": "Findings",
   "role": "Variable Qualifier",
   "ccode": "",
   "label": "Sublineage Marker String",
   "node": "Recording/<qualifier> (variable qualifier)",
   "basis": "role-fallback",
   "scope": "GOC",
   "linkType": "role-level"
  },
  {
   "variable": "--CELSTA",
   "class": "Findings",
   "role": "Variable Qualifier",
   "ccode": "",
   "label": "Cell State",
   "node": "Recording/<qualifier> (variable qualifier)",
   "basis": "role-fallback",
   "scope": "GOC",
   "linkType": "role-level"
  },
  {
   "variable": "--CSMRKS",
   "class": "Findings",
   "role": "Variable Qualifier",
   "ccode": "",
   "label": "Cell State Marker String",
   "node": "Recording/<qualifier> (variable qualifier)",
   "basis": "role-fallback",
   "scope": "GOC",
   "linkType": "role-level"
  },
  {
   "variable": "--CNTMOD",
   "class": "Findings",
   "role": "Record Qualifier",
   "ccode": "",
   "label": "Contact Mode",
   "node": "Recording/<qualifier> (record qualifier)",
   "basis": "role-fallback",
   "scope": "GOC",
   "linkType": "role-level"
  },
  {
   "variable": "--EPCHGI",
   "class": "Findings",
   "role": "Record Qualifier",
   "ccode": "",
   "label": "Epi/Pandemic Related Change Indicator",
   "node": "Recording/<qualifier> (record qualifier)",
   "basis": "role-fallback",
   "scope": "GOC",
   "linkType": "role-level"
  },
  {
   "variable": "--TSTCND",
   "class": "Findings",
   "role": "Variable Qualifier",
   "ccode": "",
   "label": "Test Condition",
   "node": "Recording/<qualifier> (variable qualifier)",
   "basis": "role-fallback",
   "scope": "GOC",
   "linkType": "role-level"
  },
  {
   "variable": "--CNDAGT",
   "class": "Findings",
   "role": "Record Qualifier",
   "ccode": "",
   "label": "Test Condition Agent",
   "node": "Recording/<qualifier> (record qualifier)",
   "basis": "role-fallback",
   "scope": "GOC",
   "linkType": "role-level"
  },
  {
   "variable": "--BDAGNT",
   "class": "Findings",
   "role": "Variable Qualifier",
   "ccode": "",
   "label": "Binding Agent",
   "node": "Recording/<qualifier> (variable qualifier)",
   "basis": "role-fallback",
   "scope": "GOC",
   "linkType": "role-level"
  },
  {
   "variable": "--ABCLID",
   "class": "Findings",
   "role": "Record Qualifier",
   "ccode": "",
   "label": "Antibody Clone Identifier",
   "node": "Recording/<qualifier> (record qualifier)",
   "basis": "role-fallback",
   "scope": "GOC",
   "linkType": "role-level"
  },
  {
   "variable": "--MRKSTR",
   "class": "Findings",
   "role": "Record Qualifier",
   "ccode": "",
   "label": "Marker String",
   "node": "Recording/<qualifier> (record qualifier)",
   "basis": "role-fallback",
   "scope": "GOC",
   "linkType": "role-level"
  },
  {
   "variable": "--GATE",
   "class": "Findings",
   "role": "Record Qualifier",
   "ccode": "",
   "label": "Gate",
   "node": "Recording/<qualifier> (record qualifier)",
   "basis": "role-fallback",
   "scope": "GOC",
   "linkType": "role-level"
  },
  {
   "variable": "--GATDEF",
   "class": "Findings",
   "role": "Record Qualifier",
   "ccode": "",
   "label": "Gate Definition",
   "node": "Recording/<qualifier> (record qualifier)",
   "basis": "role-fallback",
   "scope": "GOC",
   "linkType": "role-level"
  },
  {
   "variable": "--TSTOPO",
   "class": "Findings",
   "role": "Variable Qualifier",
   "ccode": "",
   "label": "Test Operational Objective",
   "node": "Recording/<qualifier> (variable qualifier)",
   "basis": "role-fallback",
   "scope": "GOC",
   "linkType": "role-level"
  },
  {
   "variable": "--MSCBCE",
   "class": "Findings",
   "role": "Variable Qualifier",
   "ccode": "",
   "label": "Molecule Secreted by Cells",
   "node": "Recording/<qualifier> (variable qualifier)",
   "basis": "role-fallback",
   "scope": "GOC",
   "linkType": "role-level"
  },
  {
   "variable": "--AGENT",
   "class": "Findings",
   "role": "Record Qualifier",
   "ccode": "",
   "label": "Agent Name",
   "node": "Recording/<qualifier> (record qualifier)",
   "basis": "role-fallback",
   "scope": "GOC",
   "linkType": "role-level"
  },
  {
   "variable": "--CONC",
   "class": "Findings",
   "role": "Variable Qualifier",
   "ccode": "",
   "label": "Agent Concentration",
   "node": "Recording/<qualifier> (variable qualifier)",
   "basis": "role-fallback",
   "scope": "GOC",
   "linkType": "role-level"
  },
  {
   "variable": "--CONCU",
   "class": "Findings",
   "role": "Variable Qualifier",
   "ccode": "",
   "label": "Agent Concentration Units",
   "node": "Recording/<qualifier> (variable qualifier)",
   "basis": "role-fallback",
   "scope": "GOC",
   "linkType": "role-level"
  },
  {
   "variable": "--MODIFY",
   "class": "Findings",
   "role": "Synonym Qualifier",
   "ccode": "C170998",
   "label": "Modified Result Term",
   "node": "Recording/Topic/TopicDecode (synonym)",
   "basis": "role-fallback",
   "scope": "GOC",
   "linkType": "role-level"
  },
  {
   "variable": "--TSTDTL",
   "class": "Findings",
   "role": "Variable Qualifier",
   "ccode": "",
   "label": "Measurement, Test, or Examination Detail",
   "node": "Recording/<qualifier> (variable qualifier)",
   "basis": "role-fallback",
   "scope": "GOC",
   "linkType": "role-level"
  },
  {
   "variable": "--SPTSTD",
   "class": "Findings",
   "role": "Record Qualifier",
   "ccode": "",
   "label": "Sponsor Test Description",
   "node": "Recording/<qualifier> (record qualifier)",
   "basis": "role-fallback",
   "scope": "GOC",
   "linkType": "role-level"
  },
  {
   "variable": "--CAT",
   "class": "Findings",
   "role": "Grouping Qualifier",
   "ccode": "C25372",
   "label": "Category",
   "node": "/Category",
   "basis": "alias",
   "scope": "GOC",
   "linkType": "precise"
  },
  {
   "variable": "--SCAT",
   "class": "Findings",
   "role": "Grouping Qualifier",
   "ccode": "",
   "label": "Subcategory",
   "node": "/Category/Subcategory",
   "basis": "alias",
   "scope": "GOC",
   "linkType": "precise"
  },
  {
   "variable": "--TSTPNL",
   "class": "Findings",
   "role": "Grouping Qualifier",
   "ccode": "",
   "label": "Test Panel",
   "node": "Recording/Category",
   "basis": "role-fallback",
   "scope": "GOC",
   "linkType": "role-level"
  },
  {
   "variable": "--POS",
   "class": "Findings",
   "role": "Record Qualifier",
   "ccode": "C171002",
   "label": "Position of Subject During Observation",
   "node": "/Position",
   "basis": "alias",
   "scope": "GOC",
   "linkType": "precise"
  },
  {
   "variable": "--BODSYS",
   "class": "Findings",
   "role": "Record Qualifier",
   "ccode": "C170986",
   "label": "Body System or Organ Class",
   "node": "Recording/<qualifier> (record qualifier)",
   "basis": "role-fallback",
   "scope": "GOC",
   "linkType": "role-level"
  },
  {
   "variable": "--ORRES",
   "class": "Findings",
   "role": "Result Qualifier",
   "ccode": "C117221",
   "label": "Result or Finding in Original Units",
   "node": "/ResultValue/Quantity/value",
   "basis": "alias",
   "scope": "GOC",
   "linkType": "precise"
  },
  {
   "variable": "--ORRESU",
   "class": "Findings",
   "role": "Variable Qualifier",
   "ccode": "C82586",
   "label": "Original Units",
   "node": "/ResultValue/Quantity/code(units)",
   "basis": "alias",
   "scope": "GOC",
   "linkType": "precise"
  },
  {
   "variable": "--RESSCL",
   "class": "Findings",
   "role": "Record Qualifier",
   "ccode": "",
   "label": "Result Scale",
   "node": "Recording/<qualifier> (record qualifier)",
   "basis": "role-fallback",
   "scope": "GOC",
   "linkType": "role-level"
  },
  {
   "variable": "--RESTYP",
   "class": "Findings",
   "role": "Record Qualifier",
   "ccode": "",
   "label": "Result Type",
   "node": "Recording/<qualifier> (record qualifier)",
   "basis": "role-fallback",
   "scope": "GOC",
   "linkType": "role-level"
  },
  {
   "variable": "--COLSRT",
   "class": "Findings",
   "role": "Variable Qualifier",
   "ccode": "",
   "label": "Collected Summary Result Type",
   "node": "Recording/<qualifier> (variable qualifier)",
   "basis": "role-fallback",
   "scope": "GOC",
   "linkType": "role-level"
  },
  {
   "variable": "--ORNRLO",
   "class": "Findings",
   "role": "Variable Qualifier",
   "ccode": "C82580",
   "label": "Normal Range Lower Limit-Original Units",
   "node": "/Result/NormalRange/Low",
   "basis": "alias",
   "scope": "GOC",
   "linkType": "precise"
  },
  {
   "variable": "--ORNRHI",
   "class": "Findings",
   "role": "Variable Qualifier",
   "ccode": "C70933",
   "label": "Normal Range Upper Limit-Original Units",
   "node": "/Result/NormalRange/High",
   "basis": "alias",
   "scope": "GOC",
   "linkType": "precise"
  },
  {
   "variable": "--ORREF",
   "class": "Findings",
   "role": "Variable Qualifier",
   "ccode": "",
   "label": "Reference Result in Original Units",
   "node": "/Result/Reference",
   "basis": "alias",
   "scope": "GOC",
   "linkType": "precise"
  },
  {
   "variable": "--LLOD",
   "class": "Findings",
   "role": "Variable Qualifier",
   "ccode": "",
   "label": "Lower Limit of Detection",
   "node": "Recording/<qualifier> (variable qualifier)",
   "basis": "role-fallback",
   "scope": "GOC",
   "linkType": "role-level"
  },
  {
   "variable": "--STRESC",
   "class": "Findings",
   "role": "Result Qualifier",
   "ccode": "C117222",
   "label": "Result or Finding in Standard Format",
   "node": "/ResultValue/Quantity/value",
   "basis": "alias",
   "scope": "GOC",
   "linkType": "precise"
  },
  {
   "variable": "--IMPLBL",
   "class": "Findings",
   "role": "Record Qualifier",
   "ccode": "",
   "label": "Implantation Site Label",
   "node": "Recording/<qualifier> (record qualifier)",
   "basis": "role-fallback",
   "scope": "GOC",
   "linkType": "role-level"
  },
  {
   "variable": "--STRESN",
   "class": "Findings",
   "role": "Result Qualifier",
   "ccode": "C171009",
   "label": "Numeric Result/Finding in Standard Units",
   "node": "/ResultValue/Quantity/value",
   "basis": "alias",
   "scope": "GOC",
   "linkType": "precise"
  },
  {
   "variable": "--STRESU",
   "class": "Findings",
   "role": "Variable Qualifier",
   "ccode": "C82587",
   "label": "Standard Units",
   "node": "/ResultValue/Quantity/code(units)",
   "basis": "alias",
   "scope": "GOC",
   "linkType": "precise"
  },
  {
   "variable": "--STNRLO",
   "class": "Findings",
   "role": "Variable Qualifier",
   "ccode": "C171008",
   "label": "Normal Range Lower Limit-Standard Units",
   "node": "/Result/NormalRange/Low",
   "basis": "alias",
   "scope": "GOC",
   "linkType": "precise"
  },
  {
   "variable": "--STNRHI",
   "class": "Findings",
   "role": "Variable Qualifier",
   "ccode": "C171007",
   "label": "Normal Range Upper Limit-Standard Units",
   "node": "/Result/NormalRange/High",
   "basis": "alias",
   "scope": "GOC",
   "linkType": "precise"
  },
  {
   "variable": "--STNRC",
   "class": "Findings",
   "role": "Variable Qualifier",
   "ccode": "C171006",
   "label": "Normal Range for Character Results",
   "node": "Recording/<qualifier> (variable qualifier)",
   "basis": "role-fallback",
   "scope": "GOC",
   "linkType": "role-level"
  },
  {
   "variable": "--STREFC",
   "class": "Findings",
   "role": "Variable Qualifier",
   "ccode": "",
   "label": "Reference Result in Standard Format",
   "node": "Recording/<qualifier> (variable qualifier)",
   "basis": "role-fallback",
   "scope": "GOC",
   "linkType": "role-level"
  },
  {
   "variable": "--STREFN",
   "class": "Findings",
   "role": "Variable Qualifier",
   "ccode": "",
   "label": "Numeric Reference Result in Std Units",
   "node": "Recording/<qualifier> (variable qualifier)",
   "basis": "role-fallback",
   "scope": "GOC",
   "linkType": "role-level"
  },
  {
   "variable": "--NRIND",
   "class": "Findings",
   "role": "Variable Qualifier",
   "ccode": "C170999",
   "label": "Normal/Reference Range Indicator",
   "node": "Recording/<qualifier> (variable qualifier)",
   "basis": "role-fallback",
   "scope": "GOC",
   "linkType": "role-level"
  },
  {
   "variable": "--RESCAT",
   "class": "Findings",
   "role": "Variable Qualifier",
   "ccode": "C82498",
   "label": "Result Category",
   "node": "Recording/<qualifier> (variable qualifier)",
   "basis": "role-fallback",
   "scope": "GOC",
   "linkType": "role-level"
  },
  {
   "variable": "--INHERT",
   "class": "Findings",
   "role": "Variable Qualifier",
   "ccode": "",
   "label": "Inheritability",
   "node": "Recording/<qualifier> (variable qualifier)",
   "basis": "role-fallback",
   "scope": "GOC",
   "linkType": "role-level"
  },
  {
   "variable": "--GENREF",
   "class": "Findings",
   "role": "Variable Qualifier",
   "ccode": "",
   "label": "Genome Reference",
   "node": "Recording/<qualifier> (variable qualifier)",
   "basis": "role-fallback",
   "scope": "GOC",
   "linkType": "role-level"
  },
  {
   "variable": "--CHROM",
   "class": "Findings",
   "role": "Variable Qualifier",
   "ccode": "",
   "label": "Chromosome Identifier",
   "node": "Recording/<qualifier> (variable qualifier)",
   "basis": "role-fallback",
   "scope": "GOC",
   "linkType": "role-level"
  },
  {
   "variable": "--SYM",
   "class": "Findings",
   "role": "Variable Qualifier",
   "ccode": "",
   "label": "Genomic Symbol",
   "node": "Recording/<qualifier> (variable qualifier)",
   "basis": "role-fallback",
   "scope": "GOC",
   "linkType": "role-level"
  },
  {
   "variable": "--SYMTYP",
   "class": "Findings",
   "role": "Variable Qualifier",
   "ccode": "",
   "label": "Genomic Symbol Type",
   "node": "Recording/<qualifier> (variable qualifier)",
   "basis": "role-fallback",
   "scope": "GOC",
   "linkType": "role-level"
  },
  {
   "variable": "--GENLOC",
   "class": "Findings",
   "role": "Variable Qualifier",
   "ccode": "",
   "label": "Genetic Location",
   "node": "Recording/<qualifier> (variable qualifier)",
   "basis": "role-fallback",
   "scope": "GOC",
   "linkType": "role-level"
  },
  {
   "variable": "--GENSR",
   "class": "Findings",
   "role": "Variable Qualifier",
   "ccode": "",
   "label": "Genetic Sub-Region",
   "node": "Recording/<qualifier> (variable qualifier)",
   "basis": "role-fallback",
   "scope": "GOC",
   "linkType": "role-level"
  },
  {
   "variable": "--SEQID",
   "class": "Findings",
   "role": "Variable Qualifier",
   "ccode": "",
   "label": "Sequence Identifier",
   "node": "Recording/<qualifier> (variable qualifier)",
   "basis": "role-fallback",
   "scope": "GOC",
   "linkType": "role-level"
  },
  {
   "variable": "--PVRID",
   "class": "Findings",
   "role": "Variable Qualifier",
   "ccode": "",
   "label": "Published Variant Identifier",
   "node": "Recording/<qualifier> (variable qualifier)",
   "basis": "role-fallback",
   "scope": "GOC",
   "linkType": "role-level"
  },
  {
   "variable": "--COPYID",
   "class": "Findings",
   "role": "Variable Qualifier",
   "ccode": "",
   "label": "Copy Identifier",
   "node": "Recording/<qualifier> (variable qualifier)",
   "basis": "role-fallback",
   "scope": "GOC",
   "linkType": "role-level"
  },
  {
   "variable": "--CHRON",
   "class": "Findings",
   "role": "Variable Qualifier",
   "ccode": "",
   "label": "Chronicity of Finding",
   "node": "Recording/<qualifier> (variable qualifier)",
   "basis": "role-fallback",
   "scope": "GOC",
   "linkType": "role-level"
  },
  {
   "variable": "--DISTR",
   "class": "Findings",
   "role": "Variable Qualifier",
   "ccode": "",
   "label": "Distribution Pattern of Finding",
   "node": "Recording/<qualifier> (variable qualifier)",
   "basis": "role-fallback",
   "scope": "GOC",
   "linkType": "role-level"
  },
  {
   "variable": "--RESLOC",
   "class": "Findings",
   "role": "Record Qualifier",
   "ccode": "C170500",
   "label": "Result Location of Finding",
   "node": "Recording/<qualifier> (record qualifier)",
   "basis": "role-fallback",
   "scope": "GOC",
   "linkType": "role-level"
  },
  {
   "variable": "--STAT",
   "class": "Findings",
   "role": "Record Qualifier",
   "ccode": "",
   "label": "Completion Status",
   "node": "Recording/<qualifier> (record qualifier)",
   "basis": "role-fallback",
   "scope": "GOC",
   "linkType": "role-level"
  },
  {
   "variable": "--REASND",
   "class": "Findings",
   "role": "Record Qualifier",
   "ccode": "C82556",
   "label": "Reason Not Done",
   "node": "Recording/<qualifier> (record qualifier)",
   "basis": "role-fallback",
   "scope": "GOC",
   "linkType": "role-level"
  },
  {
   "variable": "--XFN",
   "class": "Findings",
   "role": "Record Qualifier",
   "ccode": "C82536",
   "label": "External File Path",
   "node": "Recording/<qualifier> (record qualifier)",
   "basis": "role-fallback",
   "scope": "GOC",
   "linkType": "role-level"
  },
  {
   "variable": "--NAM",
   "class": "Findings",
   "role": "Record Qualifier",
   "ccode": "C117200",
   "label": "Laboratory/Vendor Name",
   "node": "Recording/<qualifier> (record qualifier)",
   "basis": "role-fallback",
   "scope": "GOC",
   "linkType": "role-level"
  },
  {
   "variable": "--LOINC",
   "class": "Findings",
   "role": "Record Qualifier",
   "ccode": "C82502",
   "label": "LOINC Code",
   "node": "Recording/<qualifier> (record qualifier)",
   "basis": "role-fallback",
   "scope": "GOC",
   "linkType": "role-level"
  },
  {
   "variable": "--SPEC",
   "class": "Findings",
   "role": "Record Qualifier",
   "ccode": "C70713",
   "label": "Specimen Material Type",
   "node": "/Specimen",
   "basis": "alias",
   "scope": "GOC",
   "linkType": "precise"
  },
  {
   "variable": "--ANTREG",
   "class": "Findings",
   "role": "Variable Qualifier",
   "ccode": "C170983",
   "label": "Anatomical Region",
   "node": "Recording/<qualifier> (variable qualifier)",
   "basis": "role-fallback",
   "scope": "GOC",
   "linkType": "role-level"
  },
  {
   "variable": "--SPCCND",
   "class": "Findings",
   "role": "Record Qualifier",
   "ccode": "C70714",
   "label": "Specimen Condition",
   "node": "Recording/<qualifier> (record qualifier)",
   "basis": "role-fallback",
   "scope": "GOC",
   "linkType": "role-level"
  },
  {
   "variable": "--SPCUFL",
   "class": "Findings",
   "role": "Record Qualifier",
   "ccode": "C171004",
   "label": "Specimen Usability for the Test",
   "node": "Recording/<qualifier> (record qualifier)",
   "basis": "role-fallback",
   "scope": "GOC",
   "linkType": "role-level"
  },
  {
   "variable": "--LOC",
   "class": "Findings",
   "role": "Record Qualifier",
   "ccode": "",
   "label": "Location Used for the Measurement",
   "node": "/Location",
   "basis": "alias",
   "scope": "GOC",
   "linkType": "precise"
  },
  {
   "variable": "--LAT",
   "class": "Findings",
   "role": "Variable Qualifier",
   "ccode": "",
   "label": "Laterality",
   "node": "/Location/Laterality",
   "basis": "alias",
   "scope": "GOC",
   "linkType": "precise"
  },
  {
   "variable": "--DIR",
   "class": "Findings",
   "role": "Variable Qualifier",
   "ccode": "",
   "label": "Directionality",
   "node": "/Location/Directionality",
   "basis": "alias",
   "scope": "GOC",
   "linkType": "precise"
  },
  {
   "variable": "--PORTOT",
   "class": "Findings",
   "role": "Variable Qualifier",
   "ccode": "",
   "label": "Portion or Totality",
   "node": "Recording/<qualifier> (variable qualifier)",
   "basis": "role-fallback",
   "scope": "GOC",
   "linkType": "role-level"
  },
  {
   "variable": "--METHOD",
   "class": "Findings",
   "role": "Record Qualifier",
   "ccode": "",
   "label": "Method of Test or Examination",
   "node": "/Method",
   "basis": "alias",
   "scope": "GOC",
   "linkType": "precise"
  },
  {
   "variable": "--RUNID",
   "class": "Findings",
   "role": "Record Qualifier",
   "ccode": "C117058",
   "label": "Run ID",
   "node": "Recording/<qualifier> (record qualifier)",
   "basis": "role-fallback",
   "scope": "GOC",
   "linkType": "role-level"
  },
  {
   "variable": "--ANMETH",
   "class": "Findings",
   "role": "Record Qualifier",
   "ccode": "",
   "label": "Analysis Method",
   "node": "Recording/<qualifier> (record qualifier)",
   "basis": "role-fallback",
   "scope": "GOC",
   "linkType": "role-level"
  },
  {
   "variable": "--TMTHSN",
   "class": "Findings",
   "role": "Record Qualifier",
   "ccode": "",
   "label": "Test Method Sensitivity",
   "node": "Recording/<qualifier> (record qualifier)",
   "basis": "role-fallback",
   "scope": "GOC",
   "linkType": "role-level"
  },
  {
   "variable": "--LEAD",
   "class": "Findings",
   "role": "Record Qualifier",
   "ccode": "C170997",
   "label": "Lead Identified to Collect Measurements",
   "node": "Recording/<qualifier> (record qualifier)",
   "basis": "role-fallback",
   "scope": "GOC",
   "linkType": "role-level"
  },
  {
   "variable": "--CSTATE",
   "class": "Findings",
   "role": "Record Qualifier",
   "ccode": "C88429",
   "label": "Consciousness State",
   "node": "Recording/<qualifier> (record qualifier)",
   "basis": "role-fallback",
   "scope": "GOC",
   "linkType": "role-level"
  },
  {
   "variable": "--LOBXFL",
   "class": "Findings",
   "role": "Record Qualifier",
   "ccode": "",
   "label": "Last Observation Before Exposure Flag",
   "node": "Recording/<qualifier> (record qualifier)",
   "basis": "role-fallback",
   "scope": "GOC",
   "linkType": "role-level"
  },
  {
   "variable": "--BLFL",
   "class": "Findings",
   "role": "Record Qualifier",
   "ccode": "C82526",
   "label": "Baseline Flag",
   "node": "Recording/<qualifier> (record qualifier)",
   "basis": "role-fallback",
   "scope": "GOC",
   "linkType": "role-level"
  },
  {
   "variable": "--FAST",
   "class": "Findings",
   "role": "Record Qualifier",
   "ccode": "C93566",
   "label": "Fasting Status",
   "node": "/FastingStatus",
   "basis": "alias",
   "scope": "GOC",
   "linkType": "precise"
  },
  {
   "variable": "--DRVFL",
   "class": "Findings",
   "role": "Record Qualifier",
   "ccode": "C81197",
   "label": "Derived Flag",
   "node": "Recording/<qualifier> (record qualifier)",
   "basis": "role-fallback",
   "scope": "GOC",
   "linkType": "role-level"
  },
  {
   "variable": "--EVAL",
   "class": "Findings",
   "role": "Record Qualifier",
   "ccode": "C51824",
   "label": "Evaluator",
   "node": "/EvaluatorRole",
   "basis": "alias",
   "scope": "GOC",
   "linkType": "precise"
  },
  {
   "variable": "--EVALID",
   "class": "Findings",
   "role": "Variable Qualifier",
   "ccode": "C117043",
   "label": "Evaluator Identifier",
   "node": "Recording/<qualifier> (variable qualifier)",
   "basis": "role-fallback",
   "scope": "GOC",
   "linkType": "role-level"
  },
  {
   "variable": "--ACPTFL",
   "class": "Findings",
   "role": "Record Qualifier",
   "ccode": "C117038",
   "label": "Accepted Record Flag",
   "node": "Recording/<qualifier> (record qualifier)",
   "basis": "role-fallback",
   "scope": "GOC",
   "linkType": "role-level"
  },
  {
   "variable": "--TOX",
   "class": "Findings",
   "role": "Variable Qualifier",
   "ccode": "C27990",
   "label": "Toxicity",
   "node": "Recording/<qualifier> (variable qualifier)",
   "basis": "role-fallback",
   "scope": "GOC",
   "linkType": "role-level"
  },
  {
   "variable": "--TOXGR",
   "class": "Findings",
   "role": "Record Qualifier",
   "ccode": "C82528",
   "label": "Toxicity Grade",
   "node": "/Severity/ToxicityGrade",
   "basis": "alias",
   "scope": "GOC",
   "linkType": "precise"
  },
  {
   "variable": "--SEV",
   "class": "Findings",
   "role": "Record Qualifier",
   "ccode": "C25676",
   "label": "Severity/Intensity",
   "node": "/Severity",
   "basis": "alias",
   "scope": "GOC",
   "linkType": "precise"
  },
  {
   "variable": "--CLSIG",
   "class": "Findings",
   "role": "Record Qualifier",
   "ccode": "C93532",
   "label": "Clinically Significant, Collected",
   "node": "Recording/<qualifier> (record qualifier)",
   "basis": "role-fallback",
   "scope": "GOC",
   "linkType": "role-level"
  },
  {
   "variable": "--DTHREL",
   "class": "Findings",
   "role": "Record Qualifier",
   "ccode": "C82563",
   "label": "Relationship to Death",
   "node": "Recording/<qualifier> (record qualifier)",
   "basis": "role-fallback",
   "scope": "GOC",
   "linkType": "role-level"
  },
  {
   "variable": "--LLOQ",
   "class": "Findings",
   "role": "Variable Qualifier",
   "ccode": "C82589",
   "label": "Lower Limit of Quantitation",
   "node": "Recording/<qualifier> (variable qualifier)",
   "basis": "role-fallback",
   "scope": "GOC",
   "linkType": "role-level"
  },
  {
   "variable": "--ULOQ",
   "class": "Findings",
   "role": "Variable Qualifier",
   "ccode": "C85533",
   "label": "Upper Limit of Quantitation",
   "node": "Recording/<qualifier> (variable qualifier)",
   "basis": "role-fallback",
   "scope": "GOC",
   "linkType": "role-level"
  },
  {
   "variable": "--REASPF",
   "class": "Findings",
   "role": "Record Qualifier",
   "ccode": "C171003",
   "label": "Reason Test Performed",
   "node": "Recording/<qualifier> (record qualifier)",
   "basis": "role-fallback",
   "scope": "GOC",
   "linkType": "role-level"
  },
  {
   "variable": "--EXCLFL",
   "class": "Findings",
   "role": "Record Qualifier",
   "ccode": "C117045",
   "label": "Exclude from Statistics",
   "node": "Recording/<qualifier> (record qualifier)",
   "basis": "role-fallback",
   "scope": "GOC",
   "linkType": "role-level"
  },
  {
   "variable": "--REASEX",
   "class": "Findings",
   "role": "Record Qualifier",
   "ccode": "C117057",
   "label": "Reason for Exclusion from Statistics",
   "node": "Recording/<qualifier> (record qualifier)",
   "basis": "role-fallback",
   "scope": "GOC",
   "linkType": "role-level"
  },
  {
   "variable": "--USCHFL",
   "class": "Findings",
   "role": "Record Qualifier",
   "ccode": "C170510",
   "label": "Unscheduled Flag",
   "node": "Recording/<qualifier> (record qualifier)",
   "basis": "role-fallback",
   "scope": "GOC",
   "linkType": "role-level"
  },
  {
   "variable": "--REPNUM",
   "class": "Findings",
   "role": "Record Qualifier",
   "ccode": "",
   "label": "Repetition Number",
   "node": "Recording/<qualifier> (record qualifier)",
   "basis": "role-fallback",
   "scope": "GOC",
   "linkType": "role-level"
  },
  {
   "variable": "--RSTIND",
   "class": "Findings",
   "role": "Record Qualifier",
   "ccode": "",
   "label": "Restraint Indicator",
   "node": "Recording/<qualifier> (record qualifier)",
   "basis": "role-fallback",
   "scope": "GOC",
   "linkType": "role-level"
  },
  {
   "variable": "--RSTMOD",
   "class": "Findings",
   "role": "Record Qualifier",
   "ccode": "",
   "label": "Restraint Mode",
   "node": "Recording/<qualifier> (record qualifier)",
   "basis": "role-fallback",
   "scope": "GOC",
   "linkType": "role-level"
  },
  {
   "variable": "--OBJ",
   "class": "Findings About",
   "role": "Record Qualifier",
   "ccode": "",
   "label": "Object of the Observation",
   "node": "Recording/<qualifier> (record qualifier)",
   "basis": "role-fallback",
   "scope": "GOC",
   "linkType": "role-level"
  },
  {
   "variable": "APID",
   "class": "Associated Persons",
   "role": "Identifier",
   "ccode": "",
   "label": "Associated Persons Identifier",
   "node": null,
   "basis": "unmapped",
   "scope": "out-of-scope-class",
   "linkType": "unmapped"
  },
  {
   "variable": "RSUBJID",
   "class": "Associated Persons",
   "role": "Identifier",
   "ccode": "",
   "label": "Related Subject or Pool Identifier",
   "node": null,
   "basis": "unmapped",
   "scope": "out-of-scope-class",
   "linkType": "unmapped"
  },
  {
   "variable": "RDEVID",
   "class": "Associated Persons",
   "role": "Identifier",
   "ccode": "",
   "label": "Related Device Identifier",
   "node": null,
   "basis": "unmapped",
   "scope": "out-of-scope-class",
   "linkType": "unmapped"
  },
  {
   "variable": "SREL",
   "class": "Associated Persons",
   "role": "Identifier",
   "ccode": "",
   "label": "Subject, Device, or Study Relationship",
   "node": null,
   "basis": "unmapped",
   "scope": "out-of-scope-class",
   "linkType": "unmapped"
  },
  {
   "variable": "STUDYID",
   "class": "Special-Purpose",
   "role": "Identifier",
   "ccode": "C83082",
   "label": "Study Identifier",
   "node": "sharedDimensions/Study",
   "basis": "shared-dimension",
   "scope": "out-of-scope-class",
   "linkType": "precise"
  },
  {
   "variable": "DOMAIN",
   "class": "Special-Purpose",
   "role": "Identifier",
   "ccode": "C49558",
   "label": "Domain Abbreviation",
   "node": "Recording (domain = class discriminator)",
   "basis": "shared-dimension",
   "scope": "out-of-scope-class",
   "linkType": "precise"
  },
  {
   "variable": "USUBJID",
   "class": "Special-Purpose",
   "role": "Identifier",
   "ccode": "C69256",
   "label": "Unique Subject Identifier",
   "node": "sharedDimensions/Subject",
   "basis": "shared-dimension",
   "scope": "out-of-scope-class",
   "linkType": "precise"
  },
  {
   "variable": "SUBJID",
   "class": "Special-Purpose",
   "role": "Topic",
   "ccode": "",
   "label": "Subject Identifier for the Study",
   "node": "sharedDimensions/Subject",
   "basis": "shared-dimension",
   "scope": "out-of-scope-class",
   "linkType": "precise"
  },
  {
   "variable": "RFSTDTC",
   "class": "Special-Purpose",
   "role": "Record Qualifier",
   "ccode": "C83395",
   "label": "Subject Reference Start Date/Time",
   "node": "/Timing/effective/period/start",
   "basis": "alias(prefix-stripped)",
   "scope": "out-of-scope-class",
   "linkType": "precise"
  },
  {
   "variable": "RFENDTC",
   "class": "Special-Purpose",
   "role": "Record Qualifier",
   "ccode": "C83394",
   "label": "Subject Reference End Date/Time",
   "node": "/Timing/effective/period/end",
   "basis": "alias(prefix-stripped)",
   "scope": "out-of-scope-class",
   "linkType": "precise"
  },
  {
   "variable": "RFXSTDTC",
   "class": "Special-Purpose",
   "role": "Record Qualifier",
   "ccode": "C170502",
   "label": "Date/Time of First Study Treatment",
   "node": null,
   "basis": "unmapped",
   "scope": "out-of-scope-class",
   "linkType": "unmapped"
  },
  {
   "variable": "RFXENDTC",
   "class": "Special-Purpose",
   "role": "Record Qualifier",
   "ccode": "C170501",
   "label": "Date/Time of Last Study Treatment",
   "node": null,
   "basis": "unmapped",
   "scope": "out-of-scope-class",
   "linkType": "unmapped"
  },
  {
   "variable": "RFCSTDTC",
   "class": "Special-Purpose",
   "role": "Record Qualifier",
   "ccode": "",
   "label": "Date/Time of First Challenge Agent Admin",
   "node": null,
   "basis": "unmapped",
   "scope": "out-of-scope-class",
   "linkType": "unmapped"
  },
  {
   "variable": "RFCENDTC",
   "class": "Special-Purpose",
   "role": "Record Qualifier",
   "ccode": "",
   "label": "Date/Time of Last Challenge Agent Admin",
   "node": null,
   "basis": "unmapped",
   "scope": "out-of-scope-class",
   "linkType": "unmapped"
  },
  {
   "variable": "RFICDTC",
   "class": "Special-Purpose",
   "role": "Record Qualifier",
   "ccode": "C117452",
   "label": "Date/Time of Informed Consent",
   "node": null,
   "basis": "unmapped",
   "scope": "out-of-scope-class",
   "linkType": "unmapped"
  },
  {
   "variable": "RFPENDTC",
   "class": "Special-Purpose",
   "role": "Record Qualifier",
   "ccode": "C117453",
   "label": "Date/Time of End of Participation",
   "node": null,
   "basis": "unmapped",
   "scope": "out-of-scope-class",
   "linkType": "unmapped"
  },
  {
   "variable": "DTHDTC",
   "class": "Special-Purpose",
   "role": "Record Qualifier",
   "ccode": "C117450",
   "label": "Date/Time of Death",
   "node": null,
   "basis": "unmapped",
   "scope": "out-of-scope-class",
   "linkType": "unmapped"
  },
  {
   "variable": "DTHFL",
   "class": "Special-Purpose",
   "role": "Record Qualifier",
   "ccode": "C117451",
   "label": "Subject Death Flag",
   "node": null,
   "basis": "unmapped",
   "scope": "out-of-scope-class",
   "linkType": "unmapped"
  },
  {
   "variable": "SITEID",
   "class": "Special-Purpose",
   "role": "Record Qualifier",
   "ccode": "C83081",
   "label": "Study Site Identifier",
   "node": "sharedDimensions/Site",
   "basis": "shared-dimension",
   "scope": "out-of-scope-class",
   "linkType": "precise"
  },
  {
   "variable": "INVID",
   "class": "Special-Purpose",
   "role": "Record Qualifier",
   "ccode": "",
   "label": "Investigator Identifier",
   "node": null,
   "basis": "unmapped",
   "scope": "out-of-scope-class",
   "linkType": "unmapped"
  },
  {
   "variable": "INVNAM",
   "class": "Special-Purpose",
   "role": "Synonym Qualifier",
   "ccode": "",
   "label": "Investigator Name",
   "node": null,
   "basis": "unmapped",
   "scope": "out-of-scope-class",
   "linkType": "unmapped"
  },
  {
   "variable": "BRTHDTC",
   "class": "Special-Purpose",
   "role": "Record Qualifier",
   "ccode": "C83217",
   "label": "Date/Time of Birth",
   "node": null,
   "basis": "unmapped",
   "scope": "out-of-scope-class",
   "linkType": "unmapped"
  },
  {
   "variable": "AGE",
   "class": "Special-Purpose",
   "role": "Record Qualifier",
   "ccode": "C170981",
   "label": "Age",
   "node": null,
   "basis": "unmapped",
   "scope": "out-of-scope-class",
   "linkType": "unmapped"
  },
  {
   "variable": "AGETXT",
   "class": "Special-Purpose",
   "role": "Record Qualifier",
   "ccode": "C170982",
   "label": "Age Text",
   "node": null,
   "basis": "unmapped",
   "scope": "out-of-scope-class",
   "linkType": "unmapped"
  },
  {
   "variable": "AGEU",
   "class": "Special-Purpose",
   "role": "Variable Qualifier",
   "ccode": "C50400",
   "label": "Age Units",
   "node": null,
   "basis": "unmapped",
   "scope": "out-of-scope-class",
   "linkType": "unmapped"
  },
  {
   "variable": "SEX",
   "class": "Special-Purpose",
   "role": "Record Qualifier",
   "ccode": "",
   "label": "Sex",
   "node": null,
   "basis": "unmapped",
   "scope": "out-of-scope-class",
   "linkType": "unmapped"
  },
  {
   "variable": "RACE",
   "class": "Special-Purpose",
   "role": "Record Qualifier",
   "ccode": "",
   "label": "Race",
   "node": null,
   "basis": "unmapped",
   "scope": "out-of-scope-class",
   "linkType": "unmapped"
  },
  {
   "variable": "ETHNIC",
   "class": "Special-Purpose",
   "role": "Record Qualifier",
   "ccode": "",
   "label": "Ethnicity",
   "node": null,
   "basis": "unmapped",
   "scope": "out-of-scope-class",
   "linkType": "unmapped"
  },
  {
   "variable": "SPECIES",
   "class": "Special-Purpose",
   "role": "Record Qualifier",
   "ccode": "C96433",
   "label": "Species",
   "node": null,
   "basis": "unmapped",
   "scope": "out-of-scope-class",
   "linkType": "unmapped"
  },
  {
   "variable": "STRAIN",
   "class": "Special-Purpose",
   "role": "Record Qualifier",
   "ccode": "C14419",
   "label": "Strain/Substrain",
   "node": null,
   "basis": "unmapped",
   "scope": "out-of-scope-class",
   "linkType": "unmapped"
  },
  {
   "variable": "SBSTRAIN",
   "class": "Special-Purpose",
   "role": "Variable Qualifier",
   "ccode": "C90460",
   "label": "Strain/Substrain Details",
   "node": null,
   "basis": "unmapped",
   "scope": "out-of-scope-class",
   "linkType": "unmapped"
  },
  {
   "variable": "ARMCD",
   "class": "Special-Purpose",
   "role": "Record Qualifier",
   "ccode": "C83216",
   "label": "Planned Arm Code",
   "node": null,
   "basis": "unmapped",
   "scope": "out-of-scope-class",
   "linkType": "unmapped"
  },
  {
   "variable": "ARM",
   "class": "Special-Purpose",
   "role": "Synonym Qualifier",
   "ccode": "C170984",
   "label": "Description of Planned Arm",
   "node": null,
   "basis": "unmapped",
   "scope": "out-of-scope-class",
   "linkType": "unmapped"
  },
  {
   "variable": "ACTARMCD",
   "class": "Special-Purpose",
   "role": "Record Qualifier",
   "ccode": "C117449",
   "label": "Actual Arm Code",
   "node": null,
   "basis": "unmapped",
   "scope": "out-of-scope-class",
   "linkType": "unmapped"
  },
  {
   "variable": "ACTARM",
   "class": "Special-Purpose",
   "role": "Synonym Qualifier",
   "ccode": "C117448",
   "label": "Description of Actual Arm",
   "node": null,
   "basis": "unmapped",
   "scope": "out-of-scope-class",
   "linkType": "unmapped"
  },
  {
   "variable": "ARMNRS",
   "class": "Special-Purpose",
   "role": "Record Qualifier",
   "ccode": "",
   "label": "Reason Arm and/or Actual Arm is Null",
   "node": null,
   "basis": "unmapped",
   "scope": "out-of-scope-class",
   "linkType": "unmapped"
  },
  {
   "variable": "ACTARMUD",
   "class": "Special-Purpose",
   "role": "Record Qualifier",
   "ccode": "",
   "label": "Description of Unplanned Actual Arm",
   "node": null,
   "basis": "unmapped",
   "scope": "out-of-scope-class",
   "linkType": "unmapped"
  },
  {
   "variable": "SETCD",
   "class": "Special-Purpose",
   "role": "Record Qualifier",
   "ccode": "C117457",
   "label": "Set Code",
   "node": null,
   "basis": "unmapped",
   "scope": "out-of-scope-class",
   "linkType": "unmapped"
  },
  {
   "variable": "RPATHCD",
   "class": "Special-Purpose",
   "role": "Record Qualifier",
   "ccode": "C170503",
   "label": "Planned Repro Path Code",
   "node": null,
   "basis": "unmapped",
   "scope": "out-of-scope-class",
   "linkType": "unmapped"
  },
  {
   "variable": "COUNTRY",
   "class": "Special-Purpose",
   "role": "Record Qualifier",
   "ccode": "C170990",
   "label": "Country",
   "node": null,
   "basis": "unmapped",
   "scope": "out-of-scope-class",
   "linkType": "unmapped"
  },
  {
   "variable": "DMDTC",
   "class": "Special-Purpose",
   "role": "Timing",
   "ccode": "C83243",
   "label": "Date/Time of Collection",
   "node": "/Timing/effective/instant",
   "basis": "alias(prefix-stripped)",
   "scope": "out-of-scope-class",
   "linkType": "precise"
  },
  {
   "variable": "DMDY",
   "class": "Special-Purpose",
   "role": "Timing",
   "ccode": "C83244",
   "label": "Study Day of Collection",
   "node": "/Timing/StudyDay",
   "basis": "alias(prefix-stripped)",
   "scope": "out-of-scope-class",
   "linkType": "precise"
  },
  {
   "variable": "STUDYID",
   "class": "Special-Purpose",
   "role": "Identifier",
   "ccode": "C83082",
   "label": "Study Identifier",
   "node": "sharedDimensions/Study",
   "basis": "shared-dimension",
   "scope": "out-of-scope-class",
   "linkType": "precise"
  },
  {
   "variable": "DOMAIN",
   "class": "Special-Purpose",
   "role": "Identifier",
   "ccode": "C49558",
   "label": "Domain Abbreviation",
   "node": "Recording (domain = class discriminator)",
   "basis": "shared-dimension",
   "scope": "out-of-scope-class",
   "linkType": "precise"
  },
  {
   "variable": "RDOMAIN",
   "class": "Special-Purpose",
   "role": "Record Qualifier",
   "ccode": "",
   "label": "Related Domain Abbreviation",
   "node": null,
   "basis": "unmapped",
   "scope": "out-of-scope-class",
   "linkType": "unmapped"
  },
  {
   "variable": "USUBJID",
   "class": "Special-Purpose",
   "role": "Identifier",
   "ccode": "C69256",
   "label": "Unique Subject Identifier",
   "node": "sharedDimensions/Subject",
   "basis": "shared-dimension",
   "scope": "out-of-scope-class",
   "linkType": "precise"
  },
  {
   "variable": "POOLID",
   "class": "Special-Purpose",
   "role": "Identifier",
   "ccode": "C117053",
   "label": "Pool Identifier",
   "node": null,
   "basis": "unmapped",
   "scope": "out-of-scope-class",
   "linkType": "unmapped"
  },
  {
   "variable": "SPDEVID",
   "class": "Special-Purpose",
   "role": "Identifier",
   "ccode": "C117060",
   "label": "Sponsor Device Identifier",
   "node": null,
   "basis": "unmapped",
   "scope": "out-of-scope-class",
   "linkType": "unmapped"
  },
  {
   "variable": "COSEQ",
   "class": "Special-Purpose",
   "role": "Identifier",
   "ccode": "",
   "label": "Sequence Number",
   "node": "/Identity/Sequence",
   "basis": "alias(prefix-stripped)",
   "scope": "out-of-scope-class",
   "linkType": "precise"
  },
  {
   "variable": "IDVAR",
   "class": "Special-Purpose",
   "role": "Record Qualifier",
   "ccode": "",
   "label": "Identifying Variable",
   "node": null,
   "basis": "unmapped",
   "scope": "out-of-scope-class",
   "linkType": "unmapped"
  },
  {
   "variable": "IDVARVAL",
   "class": "Special-Purpose",
   "role": "Record Qualifier",
   "ccode": "",
   "label": "Identifying Variable Value",
   "node": null,
   "basis": "unmapped",
   "scope": "out-of-scope-class",
   "linkType": "unmapped"
  },
  {
   "variable": "COREF",
   "class": "Special-Purpose",
   "role": "Record Qualifier",
   "ccode": "",
   "label": "Comment Reference",
   "node": null,
   "basis": "unmapped",
   "scope": "out-of-scope-class",
   "linkType": "unmapped"
  },
  {
   "variable": "COVAL",
   "class": "Special-Purpose",
   "role": "Topic",
   "ccode": "",
   "label": "Comment",
   "node": null,
   "basis": "unmapped",
   "scope": "out-of-scope-class",
   "linkType": "unmapped"
  },
  {
   "variable": "COEVAL",
   "class": "Special-Purpose",
   "role": "Record Qualifier",
   "ccode": "",
   "label": "Evaluator",
   "node": "/EvaluatorRole",
   "basis": "alias(prefix-stripped)",
   "scope": "out-of-scope-class",
   "linkType": "precise"
  },
  {
   "variable": "COEVALID",
   "class": "Special-Purpose",
   "role": "Variable Qualifier",
   "ccode": "",
   "label": "Evaluator Identifier",
   "node": null,
   "basis": "unmapped",
   "scope": "out-of-scope-class",
   "linkType": "unmapped"
  },
  {
   "variable": "CODTC",
   "class": "Special-Purpose",
   "role": "Timing",
   "ccode": "",
   "label": "Date/Time of Comment",
   "node": "/Timing/effective/instant",
   "basis": "alias(prefix-stripped)",
   "scope": "out-of-scope-class",
   "linkType": "precise"
  },
  {
   "variable": "CODY",
   "class": "Special-Purpose",
   "role": "Timing",
   "ccode": "",
   "label": "Study Day of Comment",
   "node": "/Timing/StudyDay",
   "basis": "alias(prefix-stripped)",
   "scope": "out-of-scope-class",
   "linkType": "precise"
  },
  {
   "variable": "STUDYID",
   "class": "Special-Purpose",
   "role": "Identifier",
   "ccode": "C83082",
   "label": "Study Identifier",
   "node": "sharedDimensions/Study",
   "basis": "shared-dimension",
   "scope": "out-of-scope-class",
   "linkType": "precise"
  },
  {
   "variable": "DOMAIN",
   "class": "Special-Purpose",
   "role": "Identifier",
   "ccode": "C49558",
   "label": "Domain Abbreviation",
   "node": "Recording (domain = class discriminator)",
   "basis": "shared-dimension",
   "scope": "out-of-scope-class",
   "linkType": "precise"
  },
  {
   "variable": "USUBJID",
   "class": "Special-Purpose",
   "role": "Identifier",
   "ccode": "C69256",
   "label": "Unique Subject Identifier",
   "node": "sharedDimensions/Subject",
   "basis": "shared-dimension",
   "scope": "out-of-scope-class",
   "linkType": "precise"
  },
  {
   "variable": "SESEQ",
   "class": "Special-Purpose",
   "role": "Identifier",
   "ccode": "",
   "label": "Sequence Number",
   "node": "/Identity/Sequence",
   "basis": "alias(prefix-stripped)",
   "scope": "out-of-scope-class",
   "linkType": "precise"
  },
  {
   "variable": "ETCD",
   "class": "Special-Purpose",
   "role": "Topic",
   "ccode": "",
   "label": "Element Code",
   "node": null,
   "basis": "unmapped",
   "scope": "out-of-scope-class",
   "linkType": "unmapped"
  },
  {
   "variable": "ELEMENT",
   "class": "Special-Purpose",
   "role": "Synonym Qualifier",
   "ccode": "",
   "label": "Description of Element",
   "node": null,
   "basis": "unmapped",
   "scope": "out-of-scope-class",
   "linkType": "unmapped"
  },
  {
   "variable": "TAETORD",
   "class": "Special-Purpose",
   "role": "Timing",
   "ccode": "C83438",
   "label": "Planned Order of Element within Arm",
   "node": null,
   "basis": "unmapped",
   "scope": "out-of-scope-class",
   "linkType": "unmapped"
  },
  {
   "variable": "EPOCH",
   "class": "Special-Purpose",
   "role": "Timing",
   "ccode": "C71738",
   "label": "Epoch",
   "node": null,
   "basis": "unmapped",
   "scope": "out-of-scope-class",
   "linkType": "unmapped"
  },
  {
   "variable": "SESTDTC",
   "class": "Special-Purpose",
   "role": "Timing",
   "ccode": "",
   "label": "Start Date/Time of Element",
   "node": "/Timing/effective/period/start",
   "basis": "alias(prefix-stripped)",
   "scope": "out-of-scope-class",
   "linkType": "precise"
  },
  {
   "variable": "SEENDTC",
   "class": "Special-Purpose",
   "role": "Timing",
   "ccode": "",
   "label": "End Date/Time of Element",
   "node": "/Timing/effective/period/end",
   "basis": "alias(prefix-stripped)",
   "scope": "out-of-scope-class",
   "linkType": "precise"
  },
  {
   "variable": "SESTDY",
   "class": "Special-Purpose",
   "role": "Timing",
   "ccode": "",
   "label": "Study Day of Start of Element",
   "node": "/Timing/StudyDay",
   "basis": "alias(prefix-stripped)",
   "scope": "out-of-scope-class",
   "linkType": "precise"
  },
  {
   "variable": "SEENDY",
   "class": "Special-Purpose",
   "role": "Timing",
   "ccode": "",
   "label": "Study Day of End of Element",
   "node": null,
   "basis": "unmapped",
   "scope": "out-of-scope-class",
   "linkType": "unmapped"
  },
  {
   "variable": "SEUPDES",
   "class": "Special-Purpose",
   "role": "Synonym Qualifier",
   "ccode": "",
   "label": "Description of Unplanned Element",
   "node": null,
   "basis": "unmapped",
   "scope": "out-of-scope-class",
   "linkType": "unmapped"
  },
  {
   "variable": "STUDYID",
   "class": "Special-Purpose",
   "role": "Identifier",
   "ccode": "C83082",
   "label": "Study Identifier",
   "node": "sharedDimensions/Study",
   "basis": "shared-dimension",
   "scope": "out-of-scope-class",
   "linkType": "precise"
  },
  {
   "variable": "DOMAIN",
   "class": "Special-Purpose",
   "role": "Identifier",
   "ccode": "C49558",
   "label": "Domain Abbreviation",
   "node": "Recording (domain = class discriminator)",
   "basis": "shared-dimension",
   "scope": "out-of-scope-class",
   "linkType": "precise"
  },
  {
   "variable": "USUBJID",
   "class": "Special-Purpose",
   "role": "Identifier",
   "ccode": "C69256",
   "label": "Unique Subject Identifier",
   "node": "sharedDimensions/Subject",
   "basis": "shared-dimension",
   "scope": "out-of-scope-class",
   "linkType": "precise"
  },
  {
   "variable": "SJSEQ",
   "class": "Special-Purpose",
   "role": "Identifier",
   "ccode": "",
   "label": "Sequence Number",
   "node": "/Identity/Sequence",
   "basis": "alias(prefix-stripped)",
   "scope": "out-of-scope-class",
   "linkType": "precise"
  },
  {
   "variable": "RSTGCD",
   "class": "Special-Purpose",
   "role": "Topic",
   "ccode": "",
   "label": "Repro Stage Code",
   "node": null,
   "basis": "unmapped",
   "scope": "out-of-scope-class",
   "linkType": "unmapped"
  },
  {
   "variable": "RSTAGE",
   "class": "Special-Purpose",
   "role": "Synonym Qualifier",
   "ccode": "",
   "label": "Description of Repro Stage",
   "node": null,
   "basis": "unmapped",
   "scope": "out-of-scope-class",
   "linkType": "unmapped"
  },
  {
   "variable": "SJSTDTC",
   "class": "Special-Purpose",
   "role": "Timing",
   "ccode": "",
   "label": "Start Date/Time of Repro Stage",
   "node": "/Timing/effective/period/start",
   "basis": "alias(prefix-stripped)",
   "scope": "out-of-scope-class",
   "linkType": "precise"
  },
  {
   "variable": "SJENDTC",
   "class": "Special-Purpose",
   "role": "Timing",
   "ccode": "",
   "label": "End Date/Time of Repro Stage",
   "node": "/Timing/effective/period/end",
   "basis": "alias(prefix-stripped)",
   "scope": "out-of-scope-class",
   "linkType": "precise"
  },
  {
   "variable": "RPHASE",
   "class": "Special-Purpose",
   "role": "Timing",
   "ccode": "",
   "label": "Repro Phase",
   "node": null,
   "basis": "unmapped",
   "scope": "out-of-scope-class",
   "linkType": "unmapped"
  },
  {
   "variable": "SJUPDES",
   "class": "Special-Purpose",
   "role": "Synonym Qualifier",
   "ccode": "",
   "label": "Description of Unplanned Repro Stage",
   "node": null,
   "basis": "unmapped",
   "scope": "out-of-scope-class",
   "linkType": "unmapped"
  },
  {
   "variable": "STUDYID",
   "class": "Special-Purpose",
   "role": "Identifier",
   "ccode": "C83082",
   "label": "Study Identifier",
   "node": "sharedDimensions/Study",
   "basis": "shared-dimension",
   "scope": "out-of-scope-class",
   "linkType": "precise"
  },
  {
   "variable": "DOMAIN",
   "class": "Special-Purpose",
   "role": "Identifier",
   "ccode": "C49558",
   "label": "Domain Abbreviation",
   "node": "Recording (domain = class discriminator)",
   "basis": "shared-dimension",
   "scope": "out-of-scope-class",
   "linkType": "precise"
  },
  {
   "variable": "USUBJID",
   "class": "Special-Purpose",
   "role": "Identifier",
   "ccode": "C69256",
   "label": "Unique Subject Identifier",
   "node": "sharedDimensions/Subject",
   "basis": "shared-dimension",
   "scope": "out-of-scope-class",
   "linkType": "precise"
  },
  {
   "variable": "VISITNUM",
   "class": "Special-Purpose",
   "role": "Topic",
   "ccode": "C83101",
   "label": "Visit Number",
   "node": "sharedDimensions/Visit",
   "basis": "shared-dimension",
   "scope": "out-of-scope-class",
   "linkType": "precise"
  },
  {
   "variable": "VISIT",
   "class": "Special-Purpose",
   "role": "Synonym Qualifier",
   "ccode": "C171010",
   "label": "Visit Name",
   "node": "sharedDimensions/Visit",
   "basis": "shared-dimension",
   "scope": "out-of-scope-class",
   "linkType": "precise"
  },
  {
   "variable": "SVPRESP",
   "class": "Special-Purpose",
   "role": "Variable Qualifier",
   "ccode": "",
   "label": "Pre-Specified",
   "node": "/PreSpecified",
   "basis": "alias(prefix-stripped)",
   "scope": "out-of-scope-class",
   "linkType": "precise"
  },
  {
   "variable": "SVOCCUR",
   "class": "Special-Purpose",
   "role": "Record Qualifier",
   "ccode": "",
   "label": "Occurrence",
   "node": "/Occurrence",
   "basis": "alias(prefix-stripped)",
   "scope": "out-of-scope-class",
   "linkType": "precise"
  },
  {
   "variable": "SVREASOC",
   "class": "Special-Purpose",
   "role": "Record Qualifier",
   "ccode": "",
   "label": "Reason for Occur Value",
   "node": null,
   "basis": "unmapped",
   "scope": "out-of-scope-class",
   "linkType": "unmapped"
  },
  {
   "variable": "SVCNTMOD",
   "class": "Special-Purpose",
   "role": "Record Qualifier",
   "ccode": "",
   "label": "Contact Mode",
   "node": null,
   "basis": "unmapped",
   "scope": "out-of-scope-class",
   "linkType": "unmapped"
  },
  {
   "variable": "SVEPCHGI",
   "class": "Special-Purpose",
   "role": "Record Qualifier",
   "ccode": "",
   "label": "Epi/Pandemic Related Change Indicator",
   "node": null,
   "basis": "unmapped",
   "scope": "out-of-scope-class",
   "linkType": "unmapped"
  },
  {
   "variable": "VISITDY",
   "class": "Special-Purpose",
   "role": "Timing",
   "ccode": "C171011",
   "label": "Planned Study Day of Visit",
   "node": "sharedDimensions/Visit",
   "basis": "shared-dimension",
   "scope": "out-of-scope-class",
   "linkType": "precise"
  },
  {
   "variable": "SVSTDTC",
   "class": "Special-Purpose",
   "role": "Timing",
   "ccode": "",
   "label": "Start Date/Time of Visit",
   "node": "/Timing/effective/period/start",
   "basis": "alias(prefix-stripped)",
   "scope": "out-of-scope-class",
   "linkType": "precise"
  },
  {
   "variable": "SVENDTC",
   "class": "Special-Purpose",
   "role": "Timing",
   "ccode": "",
   "label": "End Date/Time of Visit",
   "node": "/Timing/effective/period/end",
   "basis": "alias(prefix-stripped)",
   "scope": "out-of-scope-class",
   "linkType": "precise"
  },
  {
   "variable": "SVSTDY",
   "class": "Special-Purpose",
   "role": "Timing",
   "ccode": "",
   "label": "Study Day of Start of Visit",
   "node": "/Timing/StudyDay",
   "basis": "alias(prefix-stripped)",
   "scope": "out-of-scope-class",
   "linkType": "precise"
  },
  {
   "variable": "SVENDY",
   "class": "Special-Purpose",
   "role": "Timing",
   "ccode": "",
   "label": "Study Day of End of Visit",
   "node": null,
   "basis": "unmapped",
   "scope": "out-of-scope-class",
   "linkType": "unmapped"
  },
  {
   "variable": "SVUPDES",
   "class": "Special-Purpose",
   "role": "Record Qualifier",
   "ccode": "",
   "label": "Description of Unplanned Visit",
   "node": null,
   "basis": "unmapped",
   "scope": "out-of-scope-class",
   "linkType": "unmapped"
  },
  {
   "variable": "STUDYID",
   "class": "Special-Purpose",
   "role": "Identifier",
   "ccode": "C83082",
   "label": "Study Identifier",
   "node": "sharedDimensions/Study",
   "basis": "shared-dimension",
   "scope": "out-of-scope-class",
   "linkType": "precise"
  },
  {
   "variable": "DOMAIN",
   "class": "Special-Purpose",
   "role": "Identifier",
   "ccode": "C49558",
   "label": "Domain Abbreviation",
   "node": "Recording (domain = class discriminator)",
   "basis": "shared-dimension",
   "scope": "out-of-scope-class",
   "linkType": "precise"
  },
  {
   "variable": "USUBJID",
   "class": "Special-Purpose",
   "role": "Identifier",
   "ccode": "C69256",
   "label": "Unique Subject Identifier",
   "node": "sharedDimensions/Subject",
   "basis": "shared-dimension",
   "scope": "out-of-scope-class",
   "linkType": "precise"
  },
  {
   "variable": "SMSEQ",
   "class": "Special-Purpose",
   "role": "Identifier",
   "ccode": "",
   "label": "Sequence Number",
   "node": "/Identity/Sequence",
   "basis": "alias(prefix-stripped)",
   "scope": "out-of-scope-class",
   "linkType": "precise"
  },
  {
   "variable": "MIDS",
   "class": "Special-Purpose",
   "role": "Topic",
   "ccode": "",
   "label": "Disease Milestone Instance Name",
   "node": null,
   "basis": "unmapped",
   "scope": "out-of-scope-class",
   "linkType": "unmapped"
  },
  {
   "variable": "MIDSTYPE",
   "class": "Special-Purpose",
   "role": "Record Qualifier",
   "ccode": "",
   "label": "Disease Milestone Type",
   "node": null,
   "basis": "unmapped",
   "scope": "out-of-scope-class",
   "linkType": "unmapped"
  },
  {
   "variable": "SMSTDTC",
   "class": "Special-Purpose",
   "role": "Timing",
   "ccode": "",
   "label": "Start Date/Time of Milestone",
   "node": "/Timing/effective/period/start",
   "basis": "alias(prefix-stripped)",
   "scope": "out-of-scope-class",
   "linkType": "precise"
  },
  {
   "variable": "SMENDTC",
   "class": "Special-Purpose",
   "role": "Timing",
   "ccode": "",
   "label": "End Date/Time of Milestone",
   "node": "/Timing/effective/period/end",
   "basis": "alias(prefix-stripped)",
   "scope": "out-of-scope-class",
   "linkType": "precise"
  },
  {
   "variable": "SMSTDY",
   "class": "Special-Purpose",
   "role": "Timing",
   "ccode": "",
   "label": "Study Day of Start of Milestone",
   "node": "/Timing/StudyDay",
   "basis": "alias(prefix-stripped)",
   "scope": "out-of-scope-class",
   "linkType": "precise"
  },
  {
   "variable": "SMENDY",
   "class": "Special-Purpose",
   "role": "Timing",
   "ccode": "",
   "label": "Study Day of End of Milestone",
   "node": null,
   "basis": "unmapped",
   "scope": "out-of-scope-class",
   "linkType": "unmapped"
  },
  {
   "variable": "STUDYID",
   "class": "Trial Design",
   "role": "Identifier",
   "ccode": "C83082",
   "label": "Study Identifier",
   "node": "sharedDimensions/Study",
   "basis": "shared-dimension",
   "scope": "out-of-scope-class",
   "linkType": "precise"
  },
  {
   "variable": "DOMAIN",
   "class": "Trial Design",
   "role": "Identifier",
   "ccode": "C49558",
   "label": "Domain Abbreviation",
   "node": "Recording (domain = class discriminator)",
   "basis": "shared-dimension",
   "scope": "out-of-scope-class",
   "linkType": "precise"
  },
  {
   "variable": "ETCD",
   "class": "Trial Design",
   "role": "Topic",
   "ccode": "",
   "label": "Element Code",
   "node": null,
   "basis": "unmapped",
   "scope": "out-of-scope-class",
   "linkType": "unmapped"
  },
  {
   "variable": "ELEMENT",
   "class": "Trial Design",
   "role": "Synonym Qualifier",
   "ccode": "",
   "label": "Description of Element",
   "node": null,
   "basis": "unmapped",
   "scope": "out-of-scope-class",
   "linkType": "unmapped"
  },
  {
   "variable": "TESTRL",
   "class": "Trial Design",
   "role": "Rule",
   "ccode": "",
   "label": "Rule for Start of Element",
   "node": null,
   "basis": "unmapped",
   "scope": "out-of-scope-class",
   "linkType": "unmapped"
  },
  {
   "variable": "TEENRL",
   "class": "Trial Design",
   "role": "Rule",
   "ccode": "",
   "label": "Rule for End of Element",
   "node": null,
   "basis": "unmapped",
   "scope": "out-of-scope-class",
   "linkType": "unmapped"
  },
  {
   "variable": "TEDUR",
   "class": "Trial Design",
   "role": "Timing",
   "ccode": "",
   "label": "Planned Duration of Element",
   "node": "/Timing/Duration",
   "basis": "alias(prefix-stripped)",
   "scope": "out-of-scope-class",
   "linkType": "precise"
  },
  {
   "variable": "STUDYID",
   "class": "Trial Design",
   "role": "Identifier",
   "ccode": "C83082",
   "label": "Study Identifier",
   "node": "sharedDimensions/Study",
   "basis": "shared-dimension",
   "scope": "out-of-scope-class",
   "linkType": "precise"
  },
  {
   "variable": "DOMAIN",
   "class": "Trial Design",
   "role": "Identifier",
   "ccode": "C49558",
   "label": "Domain Abbreviation",
   "node": "Recording (domain = class discriminator)",
   "basis": "shared-dimension",
   "scope": "out-of-scope-class",
   "linkType": "precise"
  },
  {
   "variable": "ARMCD",
   "class": "Trial Design",
   "role": "Topic",
   "ccode": "C83216",
   "label": "Planned Arm Code",
   "node": null,
   "basis": "unmapped",
   "scope": "out-of-scope-class",
   "linkType": "unmapped"
  },
  {
   "variable": "ARM",
   "class": "Trial Design",
   "role": "Synonym Qualifier",
   "ccode": "C170984",
   "label": "Description of Planned Arm",
   "node": null,
   "basis": "unmapped",
   "scope": "out-of-scope-class",
   "linkType": "unmapped"
  },
  {
   "variable": "TAETORD",
   "class": "Trial Design",
   "role": "Timing",
   "ccode": "C83438",
   "label": "Planned Order of Element within Arm",
   "node": null,
   "basis": "unmapped",
   "scope": "out-of-scope-class",
   "linkType": "unmapped"
  },
  {
   "variable": "ETCD",
   "class": "Trial Design",
   "role": "Record Qualifier",
   "ccode": "",
   "label": "Element Code",
   "node": null,
   "basis": "unmapped",
   "scope": "out-of-scope-class",
   "linkType": "unmapped"
  },
  {
   "variable": "ELEMENT",
   "class": "Trial Design",
   "role": "Synonym Qualifier",
   "ccode": "",
   "label": "Description of Element",
   "node": null,
   "basis": "unmapped",
   "scope": "out-of-scope-class",
   "linkType": "unmapped"
  },
  {
   "variable": "TABRANCH",
   "class": "Trial Design",
   "role": "Rule",
   "ccode": "",
   "label": "Branch",
   "node": null,
   "basis": "unmapped",
   "scope": "out-of-scope-class",
   "linkType": "unmapped"
  },
  {
   "variable": "TATRANS",
   "class": "Trial Design",
   "role": "Rule",
   "ccode": "",
   "label": "Transition Rule",
   "node": null,
   "basis": "unmapped",
   "scope": "out-of-scope-class",
   "linkType": "unmapped"
  },
  {
   "variable": "EPOCH",
   "class": "Trial Design",
   "role": "Timing",
   "ccode": "C71738",
   "label": "Epoch",
   "node": null,
   "basis": "unmapped",
   "scope": "out-of-scope-class",
   "linkType": "unmapped"
  },
  {
   "variable": "STUDYID",
   "class": "Trial Design",
   "role": "Identifier",
   "ccode": "C83082",
   "label": "Study Identifier",
   "node": "sharedDimensions/Study",
   "basis": "shared-dimension",
   "scope": "out-of-scope-class",
   "linkType": "precise"
  },
  {
   "variable": "DOMAIN",
   "class": "Trial Design",
   "role": "Identifier",
   "ccode": "C49558",
   "label": "Domain Abbreviation",
   "node": "Recording (domain = class discriminator)",
   "basis": "shared-dimension",
   "scope": "out-of-scope-class",
   "linkType": "precise"
  },
  {
   "variable": "SETCD",
   "class": "Trial Design",
   "role": "Identifier",
   "ccode": "",
   "label": "Set Code",
   "node": null,
   "basis": "unmapped",
   "scope": "out-of-scope-class",
   "linkType": "unmapped"
  },
  {
   "variable": "SET",
   "class": "Trial Design",
   "role": "Synonym Qualifier",
   "ccode": "",
   "label": "Set Description",
   "node": null,
   "basis": "unmapped",
   "scope": "out-of-scope-class",
   "linkType": "unmapped"
  },
  {
   "variable": "TXSEQ",
   "class": "Trial Design",
   "role": "Identifier",
   "ccode": "",
   "label": "Sequence Number",
   "node": "/Identity/Sequence",
   "basis": "alias(prefix-stripped)",
   "scope": "out-of-scope-class",
   "linkType": "precise"
  },
  {
   "variable": "TXPARMCD",
   "class": "Trial Design",
   "role": "Topic",
   "ccode": "",
   "label": "Trial Set Parameter Short Name",
   "node": "/Topic",
   "basis": "alias(prefix-stripped)",
   "scope": "out-of-scope-class",
   "linkType": "precise"
  },
  {
   "variable": "TXPARM",
   "class": "Trial Design",
   "role": "Synonym Qualifier",
   "ccode": "",
   "label": "Trial Set Parameter",
   "node": "/Topic/TopicDecode",
   "basis": "alias(prefix-stripped)",
   "scope": "out-of-scope-class",
   "linkType": "precise"
  },
  {
   "variable": "TXVAL",
   "class": "Trial Design",
   "role": "Result Qualifier",
   "ccode": "",
   "label": "Trial Set Parameter Value",
   "node": null,
   "basis": "unmapped",
   "scope": "out-of-scope-class",
   "linkType": "unmapped"
  },
  {
   "variable": "STUDYID",
   "class": "Trial Design",
   "role": "Identifier",
   "ccode": "C83082",
   "label": "Study Identifier",
   "node": "sharedDimensions/Study",
   "basis": "shared-dimension",
   "scope": "out-of-scope-class",
   "linkType": "precise"
  },
  {
   "variable": "DOMAIN",
   "class": "Trial Design",
   "role": "Identifier",
   "ccode": "C49558",
   "label": "Domain Abbreviation",
   "node": "Recording (domain = class discriminator)",
   "basis": "shared-dimension",
   "scope": "out-of-scope-class",
   "linkType": "precise"
  },
  {
   "variable": "RSTGCD",
   "class": "Trial Design",
   "role": "Topic",
   "ccode": "",
   "label": "Repro Stage Code",
   "node": null,
   "basis": "unmapped",
   "scope": "out-of-scope-class",
   "linkType": "unmapped"
  },
  {
   "variable": "RSTAGE",
   "class": "Trial Design",
   "role": "Synonym Qualifier",
   "ccode": "",
   "label": "Description of Repro Stage",
   "node": null,
   "basis": "unmapped",
   "scope": "out-of-scope-class",
   "linkType": "unmapped"
  },
  {
   "variable": "TTSTRL",
   "class": "Trial Design",
   "role": "Rule",
   "ccode": "",
   "label": "Rule for Start of Repro Stage",
   "node": null,
   "basis": "unmapped",
   "scope": "out-of-scope-class",
   "linkType": "unmapped"
  },
  {
   "variable": "TTENRL",
   "class": "Trial Design",
   "role": "Rule",
   "ccode": "",
   "label": "Rule for End of Repro Stage",
   "node": null,
   "basis": "unmapped",
   "scope": "out-of-scope-class",
   "linkType": "unmapped"
  },
  {
   "variable": "TTDUR",
   "class": "Trial Design",
   "role": "Timing",
   "ccode": "",
   "label": "Planned Duration of Repro Stage",
   "node": "/Timing/Duration",
   "basis": "alias(prefix-stripped)",
   "scope": "out-of-scope-class",
   "linkType": "precise"
  },
  {
   "variable": "STUDYID",
   "class": "Trial Design",
   "role": "Identifier",
   "ccode": "C83082",
   "label": "Study Identifier",
   "node": "sharedDimensions/Study",
   "basis": "shared-dimension",
   "scope": "out-of-scope-class",
   "linkType": "precise"
  },
  {
   "variable": "DOMAIN",
   "class": "Trial Design",
   "role": "Identifier",
   "ccode": "C49558",
   "label": "Domain Abbreviation",
   "node": "Recording (domain = class discriminator)",
   "basis": "shared-dimension",
   "scope": "out-of-scope-class",
   "linkType": "precise"
  },
  {
   "variable": "RPATHCD",
   "class": "Trial Design",
   "role": "Topic",
   "ccode": "C170503",
   "label": "Planned Repro Path Code",
   "node": null,
   "basis": "unmapped",
   "scope": "out-of-scope-class",
   "linkType": "unmapped"
  },
  {
   "variable": "RPATH",
   "class": "Trial Design",
   "role": "Synonym Qualifier",
   "ccode": "",
   "label": "Description of Planned Repro Path",
   "node": null,
   "basis": "unmapped",
   "scope": "out-of-scope-class",
   "linkType": "unmapped"
  },
  {
   "variable": "TPSTGORD",
   "class": "Trial Design",
   "role": "Timing",
   "ccode": "",
   "label": "Order of Repro Stage within Repro Path",
   "node": null,
   "basis": "unmapped",
   "scope": "out-of-scope-class",
   "linkType": "unmapped"
  },
  {
   "variable": "RSTGCD",
   "class": "Trial Design",
   "role": "Topic",
   "ccode": "",
   "label": "Repro Stage Code",
   "node": null,
   "basis": "unmapped",
   "scope": "out-of-scope-class",
   "linkType": "unmapped"
  },
  {
   "variable": "RSTAGE",
   "class": "Trial Design",
   "role": "Synonym Qualifier",
   "ccode": "",
   "label": "Description of Repro Stage",
   "node": null,
   "basis": "unmapped",
   "scope": "out-of-scope-class",
   "linkType": "unmapped"
  },
  {
   "variable": "TPBRANCH",
   "class": "Trial Design",
   "role": "Rule",
   "ccode": "",
   "label": "Branch",
   "node": null,
   "basis": "unmapped",
   "scope": "out-of-scope-class",
   "linkType": "unmapped"
  },
  {
   "variable": "RPHASE",
   "class": "Trial Design",
   "role": "Timing",
   "ccode": "",
   "label": "Repro Phase",
   "node": null,
   "basis": "unmapped",
   "scope": "out-of-scope-class",
   "linkType": "unmapped"
  },
  {
   "variable": "RPRFDY",
   "class": "Trial Design",
   "role": "Timing",
   "ccode": "",
   "label": "Repro Phase Start Reference Day",
   "node": null,
   "basis": "unmapped",
   "scope": "out-of-scope-class",
   "linkType": "unmapped"
  },
  {
   "variable": "STUDYID",
   "class": "Trial Design",
   "role": "Identifier",
   "ccode": "C83082",
   "label": "Study Identifier",
   "node": "sharedDimensions/Study",
   "basis": "shared-dimension",
   "scope": "out-of-scope-class",
   "linkType": "precise"
  },
  {
   "variable": "DOMAIN",
   "class": "Trial Design",
   "role": "Identifier",
   "ccode": "C49558",
   "label": "Domain Abbreviation",
   "node": "Recording (domain = class discriminator)",
   "basis": "shared-dimension",
   "scope": "out-of-scope-class",
   "linkType": "precise"
  },
  {
   "variable": "VISITNUM",
   "class": "Trial Design",
   "role": "Topic",
   "ccode": "C83101",
   "label": "Visit Number",
   "node": "sharedDimensions/Visit",
   "basis": "shared-dimension",
   "scope": "out-of-scope-class",
   "linkType": "precise"
  },
  {
   "variable": "VISIT",
   "class": "Trial Design",
   "role": "Synonym Qualifier",
   "ccode": "C171010",
   "label": "Visit Name",
   "node": "sharedDimensions/Visit",
   "basis": "shared-dimension",
   "scope": "out-of-scope-class",
   "linkType": "precise"
  },
  {
   "variable": "VISITDY",
   "class": "Trial Design",
   "role": "Timing",
   "ccode": "C171011",
   "label": "Planned Study Day of Visit",
   "node": "sharedDimensions/Visit",
   "basis": "shared-dimension",
   "scope": "out-of-scope-class",
   "linkType": "precise"
  },
  {
   "variable": "ARMCD",
   "class": "Trial Design",
   "role": "Record Qualifier",
   "ccode": "C83216",
   "label": "Planned Arm Code",
   "node": null,
   "basis": "unmapped",
   "scope": "out-of-scope-class",
   "linkType": "unmapped"
  },
  {
   "variable": "ARM",
   "class": "Trial Design",
   "role": "Synonym Qualifier",
   "ccode": "C170984",
   "label": "Description of Planned Arm",
   "node": null,
   "basis": "unmapped",
   "scope": "out-of-scope-class",
   "linkType": "unmapped"
  },
  {
   "variable": "TVSTRL",
   "class": "Trial Design",
   "role": "Rule",
   "ccode": "",
   "label": "Visit Start Rule",
   "node": null,
   "basis": "unmapped",
   "scope": "out-of-scope-class",
   "linkType": "unmapped"
  },
  {
   "variable": "TVENRL",
   "class": "Trial Design",
   "role": "Rule",
   "ccode": "",
   "label": "Visit End Rule",
   "node": null,
   "basis": "unmapped",
   "scope": "out-of-scope-class",
   "linkType": "unmapped"
  },
  {
   "variable": "STUDYID",
   "class": "Trial Design",
   "role": "Identifier",
   "ccode": "C83082",
   "label": "Study Identifier",
   "node": "sharedDimensions/Study",
   "basis": "shared-dimension",
   "scope": "out-of-scope-class",
   "linkType": "precise"
  },
  {
   "variable": "DOMAIN",
   "class": "Trial Design",
   "role": "Identifier",
   "ccode": "C49558",
   "label": "Domain Abbreviation",
   "node": "Recording (domain = class discriminator)",
   "basis": "shared-dimension",
   "scope": "out-of-scope-class",
   "linkType": "precise"
  },
  {
   "variable": "TDORDER",
   "class": "Trial Design",
   "role": "Timing",
   "ccode": "",
   "label": "Sequence of Planned Assessment Schedule",
   "node": null,
   "basis": "unmapped",
   "scope": "out-of-scope-class",
   "linkType": "unmapped"
  },
  {
   "variable": "TDANCVAR",
   "class": "Trial Design",
   "role": "Timing",
   "ccode": "",
   "label": "Anchor Variable Name",
   "node": null,
   "basis": "unmapped",
   "scope": "out-of-scope-class",
   "linkType": "unmapped"
  },
  {
   "variable": "TDSTOFF",
   "class": "Trial Design",
   "role": "Timing",
   "ccode": "",
   "label": "Offset from the Anchor",
   "node": null,
   "basis": "unmapped",
   "scope": "out-of-scope-class",
   "linkType": "unmapped"
  },
  {
   "variable": "TDTGTPAI",
   "class": "Trial Design",
   "role": "Timing",
   "ccode": "",
   "label": "Planned Assessment Interval",
   "node": null,
   "basis": "unmapped",
   "scope": "out-of-scope-class",
   "linkType": "unmapped"
  },
  {
   "variable": "TDMINPAI",
   "class": "Trial Design",
   "role": "Timing",
   "ccode": "",
   "label": "Planned Assessment Interval Minimum",
   "node": null,
   "basis": "unmapped",
   "scope": "out-of-scope-class",
   "linkType": "unmapped"
  },
  {
   "variable": "TDMAXPAI",
   "class": "Trial Design",
   "role": "Timing",
   "ccode": "",
   "label": "Planned Assessment Interval Maximum",
   "node": null,
   "basis": "unmapped",
   "scope": "out-of-scope-class",
   "linkType": "unmapped"
  },
  {
   "variable": "TDNUMRPT",
   "class": "Trial Design",
   "role": "Record Qualifier",
   "ccode": "",
   "label": "Maximum Number of Actual Assessments",
   "node": null,
   "basis": "unmapped",
   "scope": "out-of-scope-class",
   "linkType": "unmapped"
  },
  {
   "variable": "STUDYID",
   "class": "Trial Design",
   "role": "Identifier",
   "ccode": "C83082",
   "label": "Study Identifier",
   "node": "sharedDimensions/Study",
   "basis": "shared-dimension",
   "scope": "out-of-scope-class",
   "linkType": "precise"
  },
  {
   "variable": "DOMAIN",
   "class": "Trial Design",
   "role": "Identifier",
   "ccode": "C49558",
   "label": "Domain Abbreviation",
   "node": "Recording (domain = class discriminator)",
   "basis": "shared-dimension",
   "scope": "out-of-scope-class",
   "linkType": "precise"
  },
  {
   "variable": "MIDSTYPE",
   "class": "Trial Design",
   "role": "Topic",
   "ccode": "",
   "label": "Disease Milestone Type",
   "node": null,
   "basis": "unmapped",
   "scope": "out-of-scope-class",
   "linkType": "unmapped"
  },
  {
   "variable": "TMDEF",
   "class": "Trial Design",
   "role": "Variable Qualifier",
   "ccode": "",
   "label": "Disease Milestone Definition",
   "node": null,
   "basis": "unmapped",
   "scope": "out-of-scope-class",
   "linkType": "unmapped"
  },
  {
   "variable": "TMRPT",
   "class": "Trial Design",
   "role": "Record Qualifier",
   "ccode": "",
   "label": "Disease Milestone Repetition Indicator",
   "node": null,
   "basis": "unmapped",
   "scope": "out-of-scope-class",
   "linkType": "unmapped"
  },
  {
   "variable": "STUDYID",
   "class": "Trial Design",
   "role": "Identifier",
   "ccode": "C83082",
   "label": "Study Identifier",
   "node": "sharedDimensions/Study",
   "basis": "shared-dimension",
   "scope": "out-of-scope-class",
   "linkType": "precise"
  },
  {
   "variable": "DOMAIN",
   "class": "Trial Design",
   "role": "Identifier",
   "ccode": "C49558",
   "label": "Domain Abbreviation",
   "node": "Recording (domain = class discriminator)",
   "basis": "shared-dimension",
   "scope": "out-of-scope-class",
   "linkType": "precise"
  },
  {
   "variable": "IETESTCD",
   "class": "Trial Design",
   "role": "Topic",
   "ccode": "",
   "label": "Inclusion/Exclusion Criterion Short Name",
   "node": "/Topic",
   "basis": "alias(prefix-stripped)",
   "scope": "out-of-scope-class",
   "linkType": "precise"
  },
  {
   "variable": "IETEST",
   "class": "Trial Design",
   "role": "Synonym Qualifier",
   "ccode": "",
   "label": "Inclusion/Exclusion Criterion",
   "node": "/Topic/TopicDecode",
   "basis": "alias(prefix-stripped)",
   "scope": "out-of-scope-class",
   "linkType": "precise"
  },
  {
   "variable": "IECAT",
   "class": "Trial Design",
   "role": "Grouping Qualifier",
   "ccode": "",
   "label": "Inclusion/Exclusion Category",
   "node": "/Category",
   "basis": "alias(prefix-stripped)",
   "scope": "out-of-scope-class",
   "linkType": "precise"
  },
  {
   "variable": "IESCAT",
   "class": "Trial Design",
   "role": "Grouping Qualifier",
   "ccode": "",
   "label": "Inclusion/Exclusion Subcategory",
   "node": "/Category/Subcategory",
   "basis": "alias(prefix-stripped)",
   "scope": "out-of-scope-class",
   "linkType": "precise"
  },
  {
   "variable": "TIRL",
   "class": "Trial Design",
   "role": "Rule",
   "ccode": "",
   "label": "Inclusion/Exclusion Criterion Rule",
   "node": null,
   "basis": "unmapped",
   "scope": "out-of-scope-class",
   "linkType": "unmapped"
  },
  {
   "variable": "TIVERS",
   "class": "Trial Design",
   "role": "Record Qualifier",
   "ccode": "",
   "label": "Protocol Criteria Versions",
   "node": null,
   "basis": "unmapped",
   "scope": "out-of-scope-class",
   "linkType": "unmapped"
  },
  {
   "variable": "STUDYID",
   "class": "Trial Design",
   "role": "Identifier",
   "ccode": "C83082",
   "label": "Study Identifier",
   "node": "sharedDimensions/Study",
   "basis": "shared-dimension",
   "scope": "out-of-scope-class",
   "linkType": "precise"
  },
  {
   "variable": "DOMAIN",
   "class": "Trial Design",
   "role": "Identifier",
   "ccode": "C49558",
   "label": "Domain Abbreviation",
   "node": "Recording (domain = class discriminator)",
   "basis": "shared-dimension",
   "scope": "out-of-scope-class",
   "linkType": "precise"
  },
  {
   "variable": "TSSEQ",
   "class": "Trial Design",
   "role": "Identifier",
   "ccode": "",
   "label": "Sequence Number",
   "node": "/Identity/Sequence",
   "basis": "alias(prefix-stripped)",
   "scope": "out-of-scope-class",
   "linkType": "precise"
  },
  {
   "variable": "TSGRPID",
   "class": "Trial Design",
   "role": "Identifier",
   "ccode": "",
   "label": "Group ID",
   "node": "/Identity/GroupId",
   "basis": "alias(prefix-stripped)",
   "scope": "out-of-scope-class",
   "linkType": "precise"
  },
  {
   "variable": "TSPARMCD",
   "class": "Trial Design",
   "role": "Topic",
   "ccode": "",
   "label": "Trial Summary Parameter Short Name",
   "node": "/Topic",
   "basis": "alias(prefix-stripped)",
   "scope": "out-of-scope-class",
   "linkType": "precise"
  },
  {
   "variable": "TSPARM",
   "class": "Trial Design",
   "role": "Synonym Qualifier",
   "ccode": "",
   "label": "Trial Summary Parameter",
   "node": "/Topic/TopicDecode",
   "basis": "alias(prefix-stripped)",
   "scope": "out-of-scope-class",
   "linkType": "precise"
  },
  {
   "variable": "TSVAL",
   "class": "Trial Design",
   "role": "Result Qualifier",
   "ccode": "",
   "label": "Parameter Value",
   "node": null,
   "basis": "unmapped",
   "scope": "out-of-scope-class",
   "linkType": "unmapped"
  },
  {
   "variable": "TSVALNF",
   "class": "Trial Design",
   "role": "Result Qualifier",
   "ccode": "",
   "label": "Parameter Null Flavor",
   "node": null,
   "basis": "unmapped",
   "scope": "out-of-scope-class",
   "linkType": "unmapped"
  },
  {
   "variable": "TSVALCD",
   "class": "Trial Design",
   "role": "Result Qualifier",
   "ccode": "",
   "label": "Parameter Value Code",
   "node": null,
   "basis": "unmapped",
   "scope": "out-of-scope-class",
   "linkType": "unmapped"
  },
  {
   "variable": "TSVCDREF",
   "class": "Trial Design",
   "role": "Result Qualifier",
   "ccode": "",
   "label": "Name of the Reference Terminology",
   "node": null,
   "basis": "unmapped",
   "scope": "out-of-scope-class",
   "linkType": "unmapped"
  },
  {
   "variable": "TSVCDVER",
   "class": "Trial Design",
   "role": "Result Qualifier",
   "ccode": "",
   "label": "Version of the Reference Terminology",
   "node": null,
   "basis": "unmapped",
   "scope": "out-of-scope-class",
   "linkType": "unmapped"
  },
  {
   "variable": "STUDYID",
   "class": "Trial Design",
   "role": "Identifier",
   "ccode": "C83082",
   "label": "Study Identifier",
   "node": "sharedDimensions/Study",
   "basis": "shared-dimension",
   "scope": "out-of-scope-class",
   "linkType": "precise"
  },
  {
   "variable": "DOMAIN",
   "class": "Trial Design",
   "role": "Identifier",
   "ccode": "C49558",
   "label": "Domain Abbreviation",
   "node": "Recording (domain = class discriminator)",
   "basis": "shared-dimension",
   "scope": "out-of-scope-class",
   "linkType": "precise"
  },
  {
   "variable": "ACSEQ",
   "class": "Trial Design",
   "role": "Identifier",
   "ccode": "",
   "label": "Sequence Number",
   "node": "/Identity/Sequence",
   "basis": "alias(prefix-stripped)",
   "scope": "out-of-scope-class",
   "linkType": "precise"
  },
  {
   "variable": "ACGRPID",
   "class": "Trial Design",
   "role": "Identifier",
   "ccode": "",
   "label": "Group ID",
   "node": "/Identity/GroupId",
   "basis": "alias(prefix-stripped)",
   "scope": "out-of-scope-class",
   "linkType": "precise"
  },
  {
   "variable": "ACPARMCD",
   "class": "Trial Design",
   "role": "Topic",
   "ccode": "",
   "label": "Challenge Agent Parameter Short Name",
   "node": "/Topic",
   "basis": "alias(prefix-stripped)",
   "scope": "out-of-scope-class",
   "linkType": "precise"
  },
  {
   "variable": "ACPARM",
   "class": "Trial Design",
   "role": "Synonym Qualifier",
   "ccode": "",
   "label": "Challenge Agent Parameter",
   "node": "/Topic/TopicDecode",
   "basis": "alias(prefix-stripped)",
   "scope": "out-of-scope-class",
   "linkType": "precise"
  },
  {
   "variable": "ACVAL",
   "class": "Trial Design",
   "role": "Result Qualifier",
   "ccode": "",
   "label": "Parameter Value",
   "node": null,
   "basis": "unmapped",
   "scope": "out-of-scope-class",
   "linkType": "unmapped"
  },
  {
   "variable": "ACVALU",
   "class": "Trial Design",
   "role": "Variable Qualifier",
   "ccode": "",
   "label": "Parameter Units",
   "node": null,
   "basis": "unmapped",
   "scope": "out-of-scope-class",
   "linkType": "unmapped"
  },
  {
   "variable": "ACVALNF",
   "class": "Trial Design",
   "role": "Result Qualifier",
   "ccode": "",
   "label": "Parameter Null Flavor",
   "node": null,
   "basis": "unmapped",
   "scope": "out-of-scope-class",
   "linkType": "unmapped"
  },
  {
   "variable": "ACVALCD",
   "class": "Trial Design",
   "role": "Result Qualifier",
   "ccode": "",
   "label": "Parameter Value Code",
   "node": null,
   "basis": "unmapped",
   "scope": "out-of-scope-class",
   "linkType": "unmapped"
  },
  {
   "variable": "ACVCDREF",
   "class": "Trial Design",
   "role": "Result Qualifier",
   "ccode": "",
   "label": "Name of the Reference Terminology",
   "node": null,
   "basis": "unmapped",
   "scope": "out-of-scope-class",
   "linkType": "unmapped"
  },
  {
   "variable": "ACVCDVER",
   "class": "Trial Design",
   "role": "Result Qualifier",
   "ccode": "",
   "label": "Version of the Reference Terminology",
   "node": null,
   "basis": "unmapped",
   "scope": "out-of-scope-class",
   "linkType": "unmapped"
  },
  {
   "variable": "STUDYID",
   "class": "Study Reference",
   "role": "Identifier",
   "ccode": "C83082",
   "label": "Study Identifier",
   "node": "sharedDimensions/Study",
   "basis": "shared-dimension",
   "scope": "out-of-scope-class",
   "linkType": "precise"
  },
  {
   "variable": "DOMAIN",
   "class": "Study Reference",
   "role": "Identifier",
   "ccode": "C49558",
   "label": "Domain Abbreviation",
   "node": "Recording (domain = class discriminator)",
   "basis": "shared-dimension",
   "scope": "out-of-scope-class",
   "linkType": "precise"
  },
  {
   "variable": "SPDEVID",
   "class": "Study Reference",
   "role": "Identifier",
   "ccode": "",
   "label": "Sponsor Device Identifier",
   "node": null,
   "basis": "unmapped",
   "scope": "out-of-scope-class",
   "linkType": "unmapped"
  },
  {
   "variable": "DISEQ",
   "class": "Study Reference",
   "role": "Identifier",
   "ccode": "",
   "label": "Sequence Number",
   "node": "/Identity/Sequence",
   "basis": "alias(prefix-stripped)",
   "scope": "out-of-scope-class",
   "linkType": "precise"
  },
  {
   "variable": "DIPARMCD",
   "class": "Study Reference",
   "role": "Topic",
   "ccode": "",
   "label": "Device Identifier Element Short Name",
   "node": "/Topic",
   "basis": "alias(prefix-stripped)",
   "scope": "out-of-scope-class",
   "linkType": "precise"
  },
  {
   "variable": "DIPARM",
   "class": "Study Reference",
   "role": "Synonym Qualifier",
   "ccode": "",
   "label": "Device Identifier Element Name",
   "node": "/Topic/TopicDecode",
   "basis": "alias(prefix-stripped)",
   "scope": "out-of-scope-class",
   "linkType": "precise"
  },
  {
   "variable": "DIVAL",
   "class": "Study Reference",
   "role": "Result Qualifier",
   "ccode": "",
   "label": "Device Identifier Element Value",
   "node": null,
   "basis": "unmapped",
   "scope": "out-of-scope-class",
   "linkType": "unmapped"
  },
  {
   "variable": "STUDYID",
   "class": "Study Reference",
   "role": "Identifier",
   "ccode": "C83082",
   "label": "Study Identifier",
   "node": "sharedDimensions/Study",
   "basis": "shared-dimension",
   "scope": "out-of-scope-class",
   "linkType": "precise"
  },
  {
   "variable": "DOMAIN",
   "class": "Study Reference",
   "role": "Identifier",
   "ccode": "C49558",
   "label": "Domain Abbreviation",
   "node": "Recording (domain = class discriminator)",
   "basis": "shared-dimension",
   "scope": "out-of-scope-class",
   "linkType": "precise"
  },
  {
   "variable": "NHOID",
   "class": "Study Reference",
   "role": "Identifier",
   "ccode": "",
   "label": "Non-Host Organism Identifier",
   "node": null,
   "basis": "unmapped",
   "scope": "out-of-scope-class",
   "linkType": "unmapped"
  },
  {
   "variable": "OISEQ",
   "class": "Study Reference",
   "role": "Identifier",
   "ccode": "",
   "label": "Sequence Number",
   "node": "/Identity/Sequence",
   "basis": "alias(prefix-stripped)",
   "scope": "out-of-scope-class",
   "linkType": "precise"
  },
  {
   "variable": "OIPARMCD",
   "class": "Study Reference",
   "role": "Topic",
   "ccode": "",
   "label": "Non-Host Organism ID Element Short Name",
   "node": "/Topic",
   "basis": "alias(prefix-stripped)",
   "scope": "out-of-scope-class",
   "linkType": "precise"
  },
  {
   "variable": "OIPARM",
   "class": "Study Reference",
   "role": "Synonym Qualifier",
   "ccode": "",
   "label": "Non-Host Organism ID Element Name",
   "node": "/Topic/TopicDecode",
   "basis": "alias(prefix-stripped)",
   "scope": "out-of-scope-class",
   "linkType": "precise"
  },
  {
   "variable": "OIVAL",
   "class": "Study Reference",
   "role": "Result Qualifier",
   "ccode": "",
   "label": "Non-Host Organism ID Element Value",
   "node": null,
   "basis": "unmapped",
   "scope": "out-of-scope-class",
   "linkType": "unmapped"
  },
  {
   "variable": "STUDYID",
   "class": "Relationship",
   "role": "Identifier",
   "ccode": "C83082",
   "label": "Study Identifier",
   "node": "sharedDimensions/Study",
   "basis": "shared-dimension",
   "scope": "out-of-scope-class",
   "linkType": "precise"
  },
  {
   "variable": "RDOMAIN",
   "class": "Relationship",
   "role": "Identifier",
   "ccode": "",
   "label": "Related Domain Abbreviation",
   "node": null,
   "basis": "unmapped",
   "scope": "out-of-scope-class",
   "linkType": "unmapped"
  },
  {
   "variable": "USUBJID",
   "class": "Relationship",
   "role": "Identifier",
   "ccode": "C69256",
   "label": "Unique Subject Identifier",
   "node": "sharedDimensions/Subject",
   "basis": "shared-dimension",
   "scope": "out-of-scope-class",
   "linkType": "precise"
  },
  {
   "variable": "APID",
   "class": "Relationship",
   "role": "Identifier",
   "ccode": "",
   "label": "Associated Persons Identifier",
   "node": null,
   "basis": "unmapped",
   "scope": "out-of-scope-class",
   "linkType": "unmapped"
  },
  {
   "variable": "POOLID",
   "class": "Relationship",
   "role": "Identifier",
   "ccode": "C117053",
   "label": "Pool Identifier",
   "node": null,
   "basis": "unmapped",
   "scope": "out-of-scope-class",
   "linkType": "unmapped"
  },
  {
   "variable": "SPDEVID",
   "class": "Relationship",
   "role": "Identifier",
   "ccode": "C117060",
   "label": "Sponsor Device Identifier",
   "node": null,
   "basis": "unmapped",
   "scope": "out-of-scope-class",
   "linkType": "unmapped"
  },
  {
   "variable": "IDVAR",
   "class": "Relationship",
   "role": "Identifier",
   "ccode": "",
   "label": "Identifying Variable",
   "node": null,
   "basis": "unmapped",
   "scope": "out-of-scope-class",
   "linkType": "unmapped"
  },
  {
   "variable": "IDVARVAL",
   "class": "Relationship",
   "role": "Identifier",
   "ccode": "",
   "label": "Identifying Variable Value",
   "node": null,
   "basis": "unmapped",
   "scope": "out-of-scope-class",
   "linkType": "unmapped"
  },
  {
   "variable": "RELTYPE",
   "class": "Relationship",
   "role": "Record Qualifier",
   "ccode": "",
   "label": "Relationship Type",
   "node": null,
   "basis": "unmapped",
   "scope": "out-of-scope-class",
   "linkType": "unmapped"
  },
  {
   "variable": "RELID",
   "class": "Relationship",
   "role": "Record Qualifier",
   "ccode": "",
   "label": "Relationship Identifier",
   "node": null,
   "basis": "unmapped",
   "scope": "out-of-scope-class",
   "linkType": "unmapped"
  },
  {
   "variable": "STUDYID",
   "class": "Relationship",
   "role": "Identifier",
   "ccode": "C83082",
   "label": "Study Identifier",
   "node": "sharedDimensions/Study",
   "basis": "shared-dimension",
   "scope": "out-of-scope-class",
   "linkType": "precise"
  },
  {
   "variable": "RDOMAIN",
   "class": "Relationship",
   "role": "Identifier",
   "ccode": "",
   "label": "Related Domain Abbreviation",
   "node": null,
   "basis": "unmapped",
   "scope": "out-of-scope-class",
   "linkType": "unmapped"
  },
  {
   "variable": "USUBJID",
   "class": "Relationship",
   "role": "Identifier",
   "ccode": "C69256",
   "label": "Unique Subject Identifier",
   "node": "sharedDimensions/Subject",
   "basis": "shared-dimension",
   "scope": "out-of-scope-class",
   "linkType": "precise"
  },
  {
   "variable": "APID",
   "class": "Relationship",
   "role": "Identifier",
   "ccode": "",
   "label": "Associated Persons Identifier",
   "node": null,
   "basis": "unmapped",
   "scope": "out-of-scope-class",
   "linkType": "unmapped"
  },
  {
   "variable": "POOLID",
   "class": "Relationship",
   "role": "Identifier",
   "ccode": "",
   "label": "Pool Identifier",
   "node": null,
   "basis": "unmapped",
   "scope": "out-of-scope-class",
   "linkType": "unmapped"
  },
  {
   "variable": "SPDEVID",
   "class": "Relationship",
   "role": "Identifier",
   "ccode": "C117060",
   "label": "Sponsor Device Identifier",
   "node": null,
   "basis": "unmapped",
   "scope": "out-of-scope-class",
   "linkType": "unmapped"
  },
  {
   "variable": "IDVAR",
   "class": "Relationship",
   "role": "Identifier",
   "ccode": "",
   "label": "Identifying Variable",
   "node": null,
   "basis": "unmapped",
   "scope": "out-of-scope-class",
   "linkType": "unmapped"
  },
  {
   "variable": "IDVARVAL",
   "class": "Relationship",
   "role": "Identifier",
   "ccode": "",
   "label": "Identifying Variable Value",
   "node": null,
   "basis": "unmapped",
   "scope": "out-of-scope-class",
   "linkType": "unmapped"
  },
  {
   "variable": "QNAM",
   "class": "Relationship",
   "role": "Topic",
   "ccode": "",
   "label": "Qualifier Variable Name",
   "node": null,
   "basis": "unmapped",
   "scope": "out-of-scope-class",
   "linkType": "unmapped"
  },
  {
   "variable": "QLABEL",
   "class": "Relationship",
   "role": "Synonym Qualifier",
   "ccode": "",
   "label": "Qualifier Variable Label",
   "node": null,
   "basis": "unmapped",
   "scope": "out-of-scope-class",
   "linkType": "unmapped"
  },
  {
   "variable": "QVAL",
   "class": "Relationship",
   "role": "Result Qualifier",
   "ccode": "",
   "label": "Data Value",
   "node": null,
   "basis": "unmapped",
   "scope": "out-of-scope-class",
   "linkType": "unmapped"
  },
  {
   "variable": "QORIG",
   "class": "Relationship",
   "role": "Record Qualifier",
   "ccode": "",
   "label": "Origin",
   "node": null,
   "basis": "unmapped",
   "scope": "out-of-scope-class",
   "linkType": "unmapped"
  },
  {
   "variable": "QEVAL",
   "class": "Relationship",
   "role": "Record Qualifier",
   "ccode": "",
   "label": "Evaluator",
   "node": null,
   "basis": "unmapped",
   "scope": "out-of-scope-class",
   "linkType": "unmapped"
  },
  {
   "variable": "STUDYID",
   "class": "Relationship",
   "role": "Identifier",
   "ccode": "C83082",
   "label": "Study Identifier",
   "node": "sharedDimensions/Study",
   "basis": "shared-dimension",
   "scope": "out-of-scope-class",
   "linkType": "precise"
  },
  {
   "variable": "POOLID",
   "class": "Relationship",
   "role": "Identifier",
   "ccode": "C117053",
   "label": "Pool Identifier",
   "node": null,
   "basis": "unmapped",
   "scope": "out-of-scope-class",
   "linkType": "unmapped"
  },
  {
   "variable": "USUBJID",
   "class": "Relationship",
   "role": "Identifier",
   "ccode": "C69256",
   "label": "Unique Subject Identifier",
   "node": "sharedDimensions/Subject",
   "basis": "shared-dimension",
   "scope": "out-of-scope-class",
   "linkType": "precise"
  },
  {
   "variable": "APID",
   "class": "Relationship",
   "role": "Identifier",
   "ccode": "",
   "label": "Associated Persons Identifier",
   "node": null,
   "basis": "unmapped",
   "scope": "out-of-scope-class",
   "linkType": "unmapped"
  },
  {
   "variable": "STUDYID",
   "class": "Relationship",
   "role": "Identifier",
   "ccode": "C83082",
   "label": "Study Identifier",
   "node": "sharedDimensions/Study",
   "basis": "shared-dimension",
   "scope": "out-of-scope-class",
   "linkType": "precise"
  },
  {
   "variable": "USUBJID",
   "class": "Relationship",
   "role": "Identifier",
   "ccode": "C69256",
   "label": "Unique Subject Identifier",
   "node": "sharedDimensions/Subject",
   "basis": "shared-dimension",
   "scope": "out-of-scope-class",
   "linkType": "precise"
  },
  {
   "variable": "POOLID",
   "class": "Relationship",
   "role": "Identifier",
   "ccode": "C117053",
   "label": "Pool Identifier",
   "node": null,
   "basis": "unmapped",
   "scope": "out-of-scope-class",
   "linkType": "unmapped"
  },
  {
   "variable": "RSUBJID",
   "class": "Relationship",
   "role": "Identifier",
   "ccode": "",
   "label": "Related Subject or Pool Identifier",
   "node": null,
   "basis": "unmapped",
   "scope": "out-of-scope-class",
   "linkType": "unmapped"
  },
  {
   "variable": "SREL",
   "class": "Relationship",
   "role": "Record Qualifier",
   "ccode": "",
   "label": "Subject Relationship",
   "node": null,
   "basis": "unmapped",
   "scope": "out-of-scope-class",
   "linkType": "unmapped"
  },
  {
   "variable": "STUDYID",
   "class": "Relationship",
   "role": "Identifier",
   "ccode": "C83082",
   "label": "Study Identifier",
   "node": "sharedDimensions/Study",
   "basis": "shared-dimension",
   "scope": "out-of-scope-class",
   "linkType": "precise"
  },
  {
   "variable": "DOMAIN",
   "class": "Relationship",
   "role": "Identifier",
   "ccode": "C49558",
   "label": "Domain Abbreviation",
   "node": "Recording (domain = class discriminator)",
   "basis": "shared-dimension",
   "scope": "out-of-scope-class",
   "linkType": "precise"
  },
  {
   "variable": "USUBJID",
   "class": "Relationship",
   "role": "Identifier",
   "ccode": "C69256",
   "label": "Unique Subject Identifier",
   "node": "sharedDimensions/Subject",
   "basis": "shared-dimension",
   "scope": "out-of-scope-class",
   "linkType": "precise"
  },
  {
   "variable": "SPDEVID",
   "class": "Relationship",
   "role": "Identifier",
   "ccode": "",
   "label": "Sponsor Device Identifier",
   "node": null,
   "basis": "unmapped",
   "scope": "out-of-scope-class",
   "linkType": "unmapped"
  },
  {
   "variable": "STUDYID",
   "class": "Relationship",
   "role": "Identifier",
   "ccode": "C83082",
   "label": "Study Identifier",
   "node": "sharedDimensions/Study",
   "basis": "shared-dimension",
   "scope": "out-of-scope-class",
   "linkType": "precise"
  },
  {
   "variable": "APID",
   "class": "Relationship",
   "role": "Identifier",
   "ccode": "",
   "label": "Associated Persons Identifier",
   "node": null,
   "basis": "unmapped",
   "scope": "out-of-scope-class",
   "linkType": "unmapped"
  },
  {
   "variable": "RSUBJID",
   "class": "Relationship",
   "role": "Identifier",
   "ccode": "",
   "label": "Related Subject or Pool Identifier",
   "node": null,
   "basis": "unmapped",
   "scope": "out-of-scope-class",
   "linkType": "unmapped"
  },
  {
   "variable": "RDEVID",
   "class": "Relationship",
   "role": "Identifier",
   "ccode": "",
   "label": "Related Device Identifier",
   "node": null,
   "basis": "unmapped",
   "scope": "out-of-scope-class",
   "linkType": "unmapped"
  },
  {
   "variable": "SREL",
   "class": "Relationship",
   "role": "Record Qualifier",
   "ccode": "",
   "label": "Subject, Device, or Study Relationship",
   "node": null,
   "basis": "unmapped",
   "scope": "out-of-scope-class",
   "linkType": "unmapped"
  },
  {
   "variable": "STUDYID",
   "class": "Relationship",
   "role": "Identifier",
   "ccode": "C83082",
   "label": "Study Identifier",
   "node": "sharedDimensions/Study",
   "basis": "shared-dimension",
   "scope": "out-of-scope-class",
   "linkType": "precise"
  },
  {
   "variable": "USUBJID",
   "class": "Relationship",
   "role": "Identifier",
   "ccode": "C69256",
   "label": "Unique Subject Identifier",
   "node": "sharedDimensions/Subject",
   "basis": "shared-dimension",
   "scope": "out-of-scope-class",
   "linkType": "precise"
  },
  {
   "variable": "REFID",
   "class": "Relationship",
   "role": "Identifier",
   "ccode": "C82531",
   "label": "Reference ID",
   "node": "/Identity/ReferenceId",
   "basis": "alias",
   "scope": "out-of-scope-class",
   "linkType": "precise"
  },
  {
   "variable": "SPEC",
   "class": "Relationship",
   "role": "Variable Qualifier",
   "ccode": "C70713",
   "label": "Specimen Type",
   "node": "/Specimen",
   "basis": "alias",
   "scope": "out-of-scope-class",
   "linkType": "precise"
  },
  {
   "variable": "PARENT",
   "class": "Relationship",
   "role": "Identifier",
   "ccode": "",
   "label": "Specimen Parent",
   "node": null,
   "basis": "unmapped",
   "scope": "out-of-scope-class",
   "linkType": "unmapped"
  },
  {
   "variable": "LEVEL",
   "class": "Relationship",
   "role": "Variable Qualifier",
   "ccode": "",
   "label": "Specimen Level",
   "node": null,
   "basis": "unmapped",
   "scope": "out-of-scope-class",
   "linkType": "unmapped"
  }
 ]
}