STUDYID,DOMAIN,USUBJID,AESEQ,AETERM,AEDECOD,AEBODSYS,AESTDTC,AEENDTC,AESTDY,AEENDY,AESEV,AESER,AESDTH,AEREL,AEACN,AEOUT,EPOCH
NCT01797120,AE,NCT01797120-0002,1,PNEUMONIA,PNEUMONIA,INFECTIONS AND INFESTATIONS,2022-04-05,2022-12-05,79,323,SEVERE,Y,Y,NOT RELATED,DRUG WITHDRAWN,FATAL,INDUCTION
