STUDYID,DOMAIN,USUBJID,SUBJID,RFSTDTC,RFENDTC,RFXSTDTC,RFXENDTC,RFICDTC,RFPENDTC,DTHDTC,DTHFL,SITEID,AGE,AGEU,SEX,RACE,ETHNIC,ARMCD,ARM,ACTARMCD,ACTARM,COUNTRY
NCT01797120,DM,NCT01797120-0001,0001,2021-08-05,2023-05-05,2021-08-05,2023-02-07,2021-07-28,2023-05-05,,,0001,48,YEARS,F,BLACK OR AFRICAN AMERICAN,NOT HISPANIC OR LATINO,TRT,Fulvestrant + Everolimus,TRT,Fulvestrant + Everolimus,USA
NCT01797120,DM,NCT01797120-0002,0002,2022-01-17,2022-12-05,2022-01-17,2022-04-12,2021-12-22,2022-12-05,2022-12-05,Y,0001,52,YEARS,F,WHITE,HISPANIC OR LATINO,PLC,Fulvestrant + Placebo,PLC,Fulvestrant + Placebo,USA
NCT01797120,DM,NCT01797120-0003,0003,2021-01-25,2021-08-09,2021-01-25,2021-04-20,2020-12-28,2021-08-09,,,0001,70,YEARS,F,WHITE,NOT HISPANIC OR LATINO,PLC,Fulvestrant + Placebo,PLC,Fulvestrant + Placebo,USA
NCT01797120,DM,NCT01797120-0004,0004,2021-03-09,2021-08-13,2021-03-09,2021-06-02,2021-02-11,2021-08-13,,,0001,62,YEARS,F,WHITE,NOT HISPANIC OR LATINO,TRT,Fulvestrant + Everolimus,TRT,Fulvestrant + Everolimus,USA
NCT01797120,DM,NCT01797120-0005,0005,2021-08-23,2023-01-13,2021-08-23,2022-10-18,2021-08-09,2023-01-13,2023-01-13,Y,0001,50,YEARS,F,BLACK OR AFRICAN AMERICAN,NOT HISPANIC OR LATINO,PLC,Fulvestrant + Placebo,PLC,Fulvestrant + Placebo,USA
NCT01797120,DM,NCT01797120-0006,0006,2022-12-18,2023-08-04,2022-12-18,2023-03-13,2022-12-02,2023-08-04,,,0001,45,YEARS,F,WHITE,NOT HISPANIC OR LATINO,PLC,Fulvestrant + Placebo,PLC,Fulvestrant + Placebo,USA
NCT01797120,DM,NCT01797120-0007,0007,2021-10-19,2024-03-07,2021-10-19,2022-04-06,2021-09-25,2024-03-07,2024-03-07,Y,0001,63,YEARS,F,WHITE,NOT HISPANIC OR LATINO,TRT,Fulvestrant + Everolimus,TRT,Fulvestrant + Everolimus,USA
NCT01797120,DM,NCT01797120-0008,0008,2022-12-28,2024-01-06,2022-12-28,2023-03-23,2022-12-12,2024-01-06,2024-01-06,Y,0001,67,YEARS,F,WHITE,NOT HISPANIC OR LATINO,PLC,Fulvestrant + Placebo,PLC,Fulvestrant + Placebo,USA
NCT01797120,DM,NCT01797120-0009,0009,2022-12-03,2025-06-12,2022-12-03,2024-03-01,2022-11-26,2025-06-12,2025-06-12,Y,0001,56,YEARS,F,WHITE,NOT HISPANIC OR LATINO,TRT,Fulvestrant + Everolimus,TRT,Fulvestrant + Everolimus,USA
NCT01797120,DM,NCT01797120-0010,0010,2022-12-11,2025-05-03,2022-12-11,2024-07-22,2022-11-15,2025-05-03,2025-05-03,Y,0001,66,YEARS,F,ASIAN,HISPANIC OR LATINO,PLC,Fulvestrant + Placebo,PLC,Fulvestrant + Placebo,USA
NCT01797120,DM,NCT01797120-0011,0011,2022-12-29,2024-01-09,2022-12-29,2023-10-07,2022-12-18,2024-01-09,,,0001,55,YEARS,F,BLACK OR AFRICAN AMERICAN,NOT HISPANIC OR LATINO,TRT,Fulvestrant + Everolimus,TRT,Fulvestrant + Everolimus,USA
NCT01797120,DM,NCT01797120-0012,0012,2022-07-10,2025-08-07,2022-07-10,2024-05-13,2022-06-16,2025-08-07,2025-08-07,Y,0001,46,YEARS,F,WHITE,NOT HISPANIC OR LATINO,PLC,Fulvestrant + Placebo,PLC,Fulvestrant + Placebo,USA
NCT01797120,DM,NCT01797120-0013,0013,2021-02-02,2021-07-24,2021-02-02,2021-04-28,2021-01-06,2021-07-24,2021-07-24,Y,0001,67,YEARS,F,WHITE,NOT HISPANIC OR LATINO,PLC,Fulvestrant + Placebo,PLC,Fulvestrant + Placebo,USA
NCT01797120,DM,NCT01797120-0014,0014,2021-01-12,2022-06-24,2021-01-12,2021-09-22,2020-12-15,2022-06-24,2022-06-24,Y,0001,53,YEARS,F,BLACK OR AFRICAN AMERICAN,NOT HISPANIC OR LATINO,PLC,Fulvestrant + Placebo,PLC,Fulvestrant + Placebo,USA
NCT01797120,DM,NCT01797120-0015,0015,2022-09-09,2023-10-07,2022-09-09,2023-05-20,2022-08-17,2023-10-07,,,0001,60,YEARS,F,WHITE,HISPANIC OR LATINO,TRT,Fulvestrant + Everolimus,TRT,Fulvestrant + Everolimus,USA
NCT01797120,DM,NCT01797120-0016,0016,2021-08-01,2023-07-11,2021-08-01,2022-01-17,2021-07-22,2023-07-11,2023-07-11,Y,0001,74,YEARS,F,WHITE,HISPANIC OR LATINO,TRT,Fulvestrant + Everolimus,TRT,Fulvestrant + Everolimus,USA
NCT01797120,DM,NCT01797120-0017,0017,2021-05-19,2023-01-23,2021-05-19,2022-10-06,2021-05-02,2023-01-23,2023-01-23,Y,0001,63,YEARS,F,OTHER,NOT HISPANIC OR LATINO,TRT,Fulvestrant + Everolimus,TRT,Fulvestrant + Everolimus,USA
NCT01797120,DM,NCT01797120-0018,0018,2022-11-26,2023-06-20,2022-11-26,2023-05-14,2022-11-18,2023-06-20,2023-06-20,Y,0001,56,YEARS,F,WHITE,NOT HISPANIC OR LATINO,PLC,Fulvestrant + Placebo,PLC,Fulvestrant + Placebo,USA
NCT01797120,DM,NCT01797120-0019,0019,2022-02-26,2026-03-20,2022-02-26,2025-11-02,2022-01-30,2026-03-20,,,0001,37,YEARS,F,WHITE,HISPANIC OR LATINO,TRT,Fulvestrant + Everolimus,TRT,Fulvestrant + Everolimus,USA
NCT01797120,DM,NCT01797120-0020,0020,2022-09-30,2023-07-21,2022-09-30,2023-06-10,2022-09-19,2023-07-21,,,0001,72,YEARS,F,WHITE,NOT HISPANIC OR LATINO,TRT,Fulvestrant + Everolimus,TRT,Fulvestrant + Everolimus,USA
NCT01797120,DM,NCT01797120-0021,0021,2022-10-31,2023-04-27,2022-10-31,2023-01-24,2022-10-20,2023-04-27,2023-04-27,Y,0001,45,YEARS,F,WHITE,NOT HISPANIC OR LATINO,PLC,Fulvestrant + Placebo,PLC,Fulvestrant + Placebo,USA
NCT01797120,DM,NCT01797120-0022,0022,2022-09-16,2023-04-07,2022-09-16,2022-12-10,2022-08-24,2023-04-07,,,0001,68,YEARS,F,ASIAN,NOT HISPANIC OR LATINO,PLC,Fulvestrant + Placebo,PLC,Fulvestrant + Placebo,USA
NCT01797120,DM,NCT01797120-0023,0023,2022-05-04,2022-09-22,2022-05-04,2022-07-28,2022-04-11,2022-09-22,2022-09-22,Y,0001,59,YEARS,F,WHITE,NOT HISPANIC OR LATINO,TRT,Fulvestrant + Everolimus,TRT,Fulvestrant + Everolimus,USA
NCT01797120,DM,NCT01797120-0024,0024,2022-06-24,2023-02-23,2022-06-24,2022-12-10,2022-06-02,2023-02-23,2023-02-23,Y,0001,46,YEARS,F,WHITE,HISPANIC OR LATINO,PLC,Fulvestrant + Placebo,PLC,Fulvestrant + Placebo,USA
NCT01797120,DM,NCT01797120-0025,0025,2021-08-06,2023-03-18,2021-08-06,2021-10-30,2021-07-20,2023-03-18,2023-03-18,Y,0001,55,YEARS,F,WHITE,NOT HISPANIC OR LATINO,TRT,Fulvestrant + Everolimus,TRT,Fulvestrant + Everolimus,USA
NCT01797120,DM,NCT01797120-0026,0026,2022-10-26,2023-05-23,2022-10-26,2023-04-13,2022-10-06,2023-05-23,2023-05-23,Y,0001,67,YEARS,F,ASIAN,NOT HISPANIC OR LATINO,PLC,Fulvestrant + Placebo,PLC,Fulvestrant + Placebo,USA
NCT01797120,DM,NCT01797120-0027,0027,2021-11-04,2022-05-31,2021-11-04,2022-04-22,2021-10-20,2022-05-31,2022-05-31,Y,0001,58,YEARS,F,WHITE,NOT HISPANIC OR LATINO,PLC,Fulvestrant + Placebo,PLC,Fulvestrant + Placebo,USA
NCT01797120,DM,NCT01797120-0028,0028,2021-06-24,2022-05-30,2021-06-24,2021-09-17,2021-06-06,2022-05-30,2022-05-30,Y,0001,45,YEARS,F,WHITE,NOT HISPANIC OR LATINO,PLC,Fulvestrant + Placebo,PLC,Fulvestrant + Placebo,USA
NCT01797120,DM,NCT01797120-0029,0029,2021-05-29,2022-09-10,2021-05-29,2022-02-06,2021-05-02,2022-09-10,2022-09-10,Y,0001,61,YEARS,F,WHITE,NOT HISPANIC OR LATINO,PLC,Fulvestrant + Placebo,PLC,Fulvestrant + Placebo,USA
NCT01797120,DM,NCT01797120-0030,0030,2022-06-26,2023-04-03,2022-06-26,2023-03-06,2022-06-13,2023-04-03,2023-04-03,Y,0001,41,YEARS,F,WHITE,HISPANIC OR LATINO,TRT,Fulvestrant + Everolimus,TRT,Fulvestrant + Everolimus,USA
NCT01797120,DM,NCT01797120-0031,0031,2022-08-03,2023-04-02,2022-08-03,2022-10-27,2022-07-18,2023-04-02,,,0001,48,YEARS,F,ASIAN,HISPANIC OR LATINO,TRT,Fulvestrant + Everolimus,TRT,Fulvestrant + Everolimus,USA
NCT01797120,DM,NCT01797120-0032,0032,2022-07-02,2025-12-19,2022-07-02,2025-06-29,2022-06-10,2025-12-19,,,0001,58,YEARS,F,WHITE,NOT HISPANIC OR LATINO,TRT,Fulvestrant + Everolimus,TRT,Fulvestrant + Everolimus,USA
NCT01797120,DM,NCT01797120-0033,0033,2022-01-29,2023-05-26,2022-01-29,2023-03-26,2022-01-19,2023-05-26,2023-05-26,Y,0001,80,YEARS,F,WHITE,NOT HISPANIC OR LATINO,PLC,Fulvestrant + Placebo,PLC,Fulvestrant + Placebo,USA
NCT01797120,DM,NCT01797120-0034,0034,2021-03-15,2022-05-15,2021-03-15,2022-02-15,2021-02-17,2022-05-15,2022-05-15,Y,0001,48,YEARS,F,ASIAN,NOT HISPANIC OR LATINO,PLC,Fulvestrant + Placebo,PLC,Fulvestrant + Placebo,USA
NCT01797120,DM,NCT01797120-0035,0035,2021-10-25,2024-05-11,2021-10-25,2022-12-20,2021-10-06,2024-05-11,2024-05-11,Y,0001,47,YEARS,F,WHITE,NOT HISPANIC OR LATINO,TRT,Fulvestrant + Everolimus,TRT,Fulvestrant + Everolimus,USA
NCT01797120,DM,NCT01797120-0036,0036,2022-01-30,2023-02-27,2022-01-30,2022-10-10,2022-01-05,2023-02-27,2023-02-27,Y,0001,48,YEARS,F,WHITE,HISPANIC OR LATINO,PLC,Fulvestrant + Placebo,PLC,Fulvestrant + Placebo,USA
NCT01797120,DM,NCT01797120-0037,0037,2022-06-24,2024-01-28,2022-06-24,2024-01-28,2022-05-31,2024-01-28,,,0001,67,YEARS,F,WHITE,NOT HISPANIC OR LATINO,PLC,Fulvestrant + Placebo,PLC,Fulvestrant + Placebo,USA
NCT01797120,DM,NCT01797120-0038,0038,2022-03-06,2024-12-30,2022-03-06,2024-06-24,2022-02-17,2024-12-30,2024-12-30,Y,0001,61,YEARS,F,WHITE,NOT HISPANIC OR LATINO,TRT,Fulvestrant + Everolimus,TRT,Fulvestrant + Everolimus,USA
NCT01797120,DM,NCT01797120-0039,0039,2021-07-19,2022-07-06,2021-07-19,2022-03-29,2021-07-10,2022-07-06,,,0001,68,YEARS,F,WHITE,NOT HISPANIC OR LATINO,TRT,Fulvestrant + Everolimus,TRT,Fulvestrant + Everolimus,USA
NCT01797120,DM,NCT01797120-0040,0040,2022-02-28,2022-09-20,2022-02-28,2022-08-16,2022-02-20,2022-09-20,2022-09-20,Y,0001,45,YEARS,F,WHITE,NOT HISPANIC OR LATINO,PLC,Fulvestrant + Placebo,PLC,Fulvestrant + Placebo,USA
NCT01797120,DM,NCT01797120-0041,0041,2021-03-03,2022-02-06,2021-03-03,2021-08-19,2021-02-13,2022-02-06,2022-02-06,Y,0001,67,YEARS,F,BLACK OR AFRICAN AMERICAN,NOT HISPANIC OR LATINO,PLC,Fulvestrant + Placebo,PLC,Fulvestrant + Placebo,USA
NCT01797120,DM,NCT01797120-0042,0042,2021-12-08,2022-05-03,2021-12-08,2022-03-03,2021-11-28,2022-05-03,2022-05-03,Y,0001,58,YEARS,F,WHITE,NOT HISPANIC OR LATINO,TRT,Fulvestrant + Everolimus,TRT,Fulvestrant + Everolimus,USA
NCT01797120,DM,NCT01797120-0043,0043,2021-02-14,2024-10-03,2021-02-14,2023-03-13,2021-01-26,2024-10-03,2024-10-03,Y,0001,60,YEARS,F,WHITE,NOT HISPANIC OR LATINO,TRT,Fulvestrant + Everolimus,TRT,Fulvestrant + Everolimus,USA
NCT01797120,DM,NCT01797120-0044,0044,2021-03-30,2021-08-10,2021-03-30,2021-06-23,2021-03-19,2021-08-10,2021-08-10,Y,0001,49,YEARS,F,ASIAN,HISPANIC OR LATINO,PLC,Fulvestrant + Placebo,PLC,Fulvestrant + Placebo,USA
NCT01797120,DM,NCT01797120-0045,0045,2021-02-03,2022-03-05,2021-02-03,2021-04-29,2021-01-26,2022-03-05,2022-03-05,Y,0001,45,YEARS,F,WHITE,NOT HISPANIC OR LATINO,PLC,Fulvestrant + Placebo,PLC,Fulvestrant + Placebo,USA
NCT01797120,DM,NCT01797120-0046,0046,2022-10-08,2023-02-23,2022-10-08,2023-01-01,2022-09-14,2023-02-23,,,0001,44,YEARS,F,WHITE,NOT HISPANIC OR LATINO,TRT,Fulvestrant + Everolimus,TRT,Fulvestrant + Everolimus,USA
NCT01797120,DM,NCT01797120-0047,0047,2021-08-21,2023-04-01,2021-08-21,2023-04-01,2021-08-14,2023-04-01,,,0001,55,YEARS,F,WHITE,NOT HISPANIC OR LATINO,TRT,Fulvestrant + Everolimus,TRT,Fulvestrant + Everolimus,USA
NCT01797120,DM,NCT01797120-0048,0048,2021-02-06,2021-10-04,2021-02-06,2021-07-25,2021-01-23,2021-10-04,2021-10-04,Y,0001,41,YEARS,F,WHITE,NOT HISPANIC OR LATINO,TRT,Fulvestrant + Everolimus,TRT,Fulvestrant + Everolimus,USA
NCT01797120,DM,NCT01797120-0049,0049,2022-04-05,2024-03-30,2022-04-05,2023-11-15,2022-03-25,2024-03-30,,,0001,41,YEARS,F,WHITE,NOT HISPANIC OR LATINO,PLC,Fulvestrant + Placebo,PLC,Fulvestrant + Placebo,USA
NCT01797120,DM,NCT01797120-0050,0050,2021-10-18,2022-10-04,2021-10-18,2022-06-28,2021-10-08,2022-10-04,,,0001,48,YEARS,F,WHITE,NOT HISPANIC OR LATINO,PLC,Fulvestrant + Placebo,PLC,Fulvestrant + Placebo,USA
NCT01797120,DM,NCT01797120-0051,0051,2021-07-17,2023-04-28,2021-07-17,2023-02-28,2021-07-05,2023-04-28,,,0001,66,YEARS,F,WHITE,HISPANIC OR LATINO,TRT,Fulvestrant + Everolimus,TRT,Fulvestrant + Everolimus,USA
NCT01797120,DM,NCT01797120-0052,0052,2021-09-12,2022-05-31,2021-09-12,2021-12-06,2021-08-30,2022-05-31,2022-05-31,Y,0001,67,YEARS,F,WHITE,NOT HISPANIC OR LATINO,PLC,Fulvestrant + Placebo,PLC,Fulvestrant + Placebo,USA
NCT01797120,DM,NCT01797120-0053,0053,2021-03-22,2022-10-07,2021-03-22,2021-06-15,2021-03-12,2022-10-07,2022-10-07,Y,0001,53,YEARS,F,WHITE,NOT HISPANIC OR LATINO,PLC,Fulvestrant + Placebo,PLC,Fulvestrant + Placebo,USA
NCT01797120,DM,NCT01797120-0054,0054,2022-03-23,2025-11-15,2022-03-23,2025-03-20,2022-03-14,2025-11-15,2025-11-15,Y,0001,51,YEARS,F,WHITE,NOT HISPANIC OR LATINO,TRT,Fulvestrant + Everolimus,TRT,Fulvestrant + Everolimus,USA
NCT01797120,DM,NCT01797120-0055,0055,2021-05-17,2021-11-28,2021-05-17,2021-08-10,2021-05-02,2021-11-28,2021-11-28,Y,0001,42,YEARS,F,WHITE,NOT HISPANIC OR LATINO,PLC,Fulvestrant + Placebo,PLC,Fulvestrant + Placebo,USA
NCT01797120,DM,NCT01797120-0056,0056,2021-07-09,2022-01-31,2021-07-09,2021-10-02,2021-07-01,2022-01-31,,,0001,54,YEARS,F,WHITE,NOT HISPANIC OR LATINO,TRT,Fulvestrant + Everolimus,TRT,Fulvestrant + Everolimus,USA
NCT01797120,DM,NCT01797120-0057,0057,2021-05-10,2024-02-26,2021-05-10,2023-11-21,2021-04-29,2024-02-26,2024-02-26,Y,0001,54,YEARS,F,WHITE,NOT HISPANIC OR LATINO,TRT,Fulvestrant + Everolimus,TRT,Fulvestrant + Everolimus,USA
NCT01797120,DM,NCT01797120-0058,0058,2021-07-29,2023-02-15,2021-07-29,2022-09-23,2021-07-22,2023-02-15,,,0001,46,YEARS,F,WHITE,NOT HISPANIC OR LATINO,PLC,Fulvestrant + Placebo,PLC,Fulvestrant + Placebo,USA
NCT01797120,DM,NCT01797120-0059,0059,2022-01-04,2024-10-09,2022-01-04,2024-04-24,2021-12-15,2024-10-09,,,0001,61,YEARS,F,WHITE,NOT HISPANIC OR LATINO,TRT,Fulvestrant + Everolimus,TRT,Fulvestrant + Everolimus,USA
NCT01797120,DM,NCT01797120-0060,0060,2021-10-19,2023-03-11,2021-10-19,2022-04-06,2021-09-23,2023-03-11,2023-03-11,Y,0001,51,YEARS,F,WHITE,NOT HISPANIC OR LATINO,TRT,Fulvestrant + Everolimus,TRT,Fulvestrant + Everolimus,USA
NCT01797120,DM,NCT01797120-0061,0061,2022-01-12,2022-09-29,2022-01-12,2022-06-30,2021-12-27,2022-09-29,2022-09-29,Y,0001,51,YEARS,F,WHITE,NOT HISPANIC OR LATINO,PLC,Fulvestrant + Placebo,PLC,Fulvestrant + Placebo,USA
NCT01797120,DM,NCT01797120-0062,0062,2021-12-14,2022-07-30,2021-12-14,2022-03-09,2021-11-16,2022-07-30,,,0001,73,YEARS,F,WHITE,NOT HISPANIC OR LATINO,TRT,Fulvestrant + Everolimus,TRT,Fulvestrant + Everolimus,USA
NCT01797120,DM,NCT01797120-0063,0063,2021-06-18,2022-01-10,2021-06-18,2021-09-11,2021-06-06,2022-01-10,2022-01-10,Y,0001,60,YEARS,F,OTHER,NOT HISPANIC OR LATINO,PLC,Fulvestrant + Placebo,PLC,Fulvestrant + Placebo,USA
NCT01797120,DM,NCT01797120-0064,0064,2021-06-26,2021-11-04,2021-06-26,2021-09-19,2021-06-18,2021-11-04,2021-11-04,Y,0001,39,YEARS,F,WHITE,NOT HISPANIC OR LATINO,TRT,Fulvestrant + Everolimus,TRT,Fulvestrant + Everolimus,USA
NCT01797120,DM,NCT01797120-0065,0065,2022-06-22,2023-09-07,2022-06-22,2023-06-27,2022-06-08,2023-09-07,,,0001,61,YEARS,F,WHITE,HISPANIC OR LATINO,PLC,Fulvestrant + Placebo,PLC,Fulvestrant + Placebo,USA
NCT01797120,DM,NCT01797120-0066,0066,2021-11-20,2024-04-28,2021-11-20,2022-05-08,2021-11-05,2024-04-28,2024-04-28,Y,0001,47,YEARS,F,OTHER,NOT HISPANIC OR LATINO,TRT,Fulvestrant + Everolimus,TRT,Fulvestrant + Everolimus,USA
NCT01797120,DM,NCT01797120-0067,0067,2022-05-24,2024-10-23,2022-05-24,2024-06-19,2022-04-27,2024-10-23,2024-10-23,Y,0001,56,YEARS,F,WHITE,HISPANIC OR LATINO,TRT,Fulvestrant + Everolimus,TRT,Fulvestrant + Everolimus,USA
NCT01797120,DM,NCT01797120-0068,0068,2021-04-25,2022-03-01,2021-04-25,2022-01-03,2021-04-11,2022-03-01,2022-03-01,Y,0001,60,YEARS,F,WHITE,NOT HISPANIC OR LATINO,PLC,Fulvestrant + Placebo,PLC,Fulvestrant + Placebo,USA
NCT01797120,DM,NCT01797120-0069,0069,2021-01-30,2022-12-03,2021-01-30,2022-06-19,2021-01-20,2022-12-03,2022-12-03,Y,0001,47,YEARS,F,WHITE,HISPANIC OR LATINO,TRT,Fulvestrant + Everolimus,TRT,Fulvestrant + Everolimus,USA
NCT01797120,DM,NCT01797120-0070,0070,2021-10-17,2023-01-11,2021-10-17,2022-09-19,2021-09-19,2023-01-11,,,0001,60,YEARS,F,WHITE,HISPANIC OR LATINO,TRT,Fulvestrant + Everolimus,TRT,Fulvestrant + Everolimus,USA
NCT01797120,DM,NCT01797120-0071,0071,2021-05-27,2021-10-18,2021-05-27,2021-08-20,2021-05-08,2021-10-18,2021-10-18,Y,0001,54,YEARS,F,OTHER,NOT HISPANIC OR LATINO,PLC,Fulvestrant + Placebo,PLC,Fulvestrant + Placebo,USA
NCT01797120,DM,NCT01797120-0072,0072,2021-10-01,2022-10-13,2021-10-01,2022-06-11,2021-09-21,2022-10-13,2022-10-13,Y,0001,71,YEARS,F,WHITE,HISPANIC OR LATINO,TRT,Fulvestrant + Everolimus,TRT,Fulvestrant + Everolimus,USA
NCT01797120,DM,NCT01797120-0073,0073,2021-08-10,2022-06-17,2021-08-10,2022-01-26,2021-07-28,2022-06-17,2022-06-17,Y,0001,52,YEARS,F,OTHER,NOT HISPANIC OR LATINO,PLC,Fulvestrant + Placebo,PLC,Fulvestrant + Placebo,USA
NCT01797120,DM,NCT01797120-0074,0074,2021-12-07,2022-06-22,2021-12-07,2022-05-25,2021-11-10,2022-06-22,2022-06-22,Y,0001,47,YEARS,F,WHITE,NOT HISPANIC OR LATINO,PLC,Fulvestrant + Placebo,PLC,Fulvestrant + Placebo,USA
NCT01797120,DM,NCT01797120-0075,0075,2022-05-25,2023-08-12,2022-05-25,2022-11-10,2022-05-11,2023-08-12,2023-08-12,Y,0001,60,YEARS,F,ASIAN,NOT HISPANIC OR LATINO,PLC,Fulvestrant + Placebo,PLC,Fulvestrant + Placebo,USA
NCT01797120,DM,NCT01797120-0076,0076,2022-05-30,2023-08-30,2022-05-30,2023-07-25,2022-05-04,2023-08-30,2023-08-30,Y,0001,71,YEARS,F,WHITE,NOT HISPANIC OR LATINO,TRT,Fulvestrant + Everolimus,TRT,Fulvestrant + Everolimus,USA
NCT01797120,DM,NCT01797120-0077,0077,2021-03-11,2021-11-05,2021-03-11,2021-09-16,2021-03-04,2021-11-05,,,0001,61,YEARS,F,WHITE,NOT HISPANIC OR LATINO,PLC,Fulvestrant + Placebo,PLC,Fulvestrant + Placebo,USA
NCT01797120,DM,NCT01797120-0078,0078,2021-12-24,2022-09-08,2021-12-24,2022-06-11,2021-12-12,2022-09-08,,,0001,56,YEARS,F,ASIAN,NOT HISPANIC OR LATINO,TRT,Fulvestrant + Everolimus,TRT,Fulvestrant + Everolimus,USA
NCT01797120,DM,NCT01797120-0079,0079,2022-07-11,2026-03-25,2022-07-11,2025-09-30,2022-06-23,2026-03-25,,,0001,74,YEARS,F,WHITE,NOT HISPANIC OR LATINO,TRT,Fulvestrant + Everolimus,TRT,Fulvestrant + Everolimus,USA
NCT01797120,DM,NCT01797120-0080,0080,2021-11-19,2022-02-14,2021-11-19,2022-02-12,2021-11-03,2022-02-14,2022-02-14,Y,0001,72,YEARS,F,WHITE,NOT HISPANIC OR LATINO,PLC,Fulvestrant + Placebo,PLC,Fulvestrant + Placebo,USA
NCT01797120,DM,NCT01797120-0081,0081,2022-09-16,2024-08-24,2022-09-16,2024-04-27,2022-08-21,2024-08-24,2024-08-24,Y,0001,69,YEARS,F,WHITE,NOT HISPANIC OR LATINO,PLC,Fulvestrant + Placebo,PLC,Fulvestrant + Placebo,USA
NCT01797120,DM,NCT01797120-0082,0082,2021-04-02,2022-10-14,2021-04-02,2022-08-20,2021-03-19,2022-10-14,,,0001,62,YEARS,F,OTHER,NOT HISPANIC OR LATINO,TRT,Fulvestrant + Everolimus,TRT,Fulvestrant + Everolimus,USA
NCT01797120,DM,NCT01797120-0083,0083,2021-12-08,2023-11-11,2021-12-08,2023-07-20,2021-11-10,2023-11-11,2023-11-11,Y,0001,46,YEARS,F,WHITE,NOT HISPANIC OR LATINO,PLC,Fulvestrant + Placebo,PLC,Fulvestrant + Placebo,USA
NCT01797120,DM,NCT01797120-0084,0084,2022-02-28,2023-04-21,2022-02-28,2023-01-31,2022-02-16,2023-04-21,2023-04-21,Y,0001,62,YEARS,F,ASIAN,NOT HISPANIC OR LATINO,PLC,Fulvestrant + Placebo,PLC,Fulvestrant + Placebo,USA
NCT01797120,DM,NCT01797120-0085,0085,2022-07-06,2023-07-17,2022-07-06,2022-09-29,2022-06-21,2023-07-17,2023-07-17,Y,0001,41,YEARS,F,WHITE,NOT HISPANIC OR LATINO,PLC,Fulvestrant + Placebo,PLC,Fulvestrant + Placebo,USA
NCT01797120,DM,NCT01797120-0086,0086,2022-10-25,2025-02-07,2022-10-25,2024-08-28,2022-10-07,2025-02-07,2025-02-07,Y,0001,67,YEARS,F,ASIAN,NOT HISPANIC OR LATINO,TRT,Fulvestrant + Everolimus,TRT,Fulvestrant + Everolimus,USA
NCT01797120,DM,NCT01797120-0087,0087,2022-02-19,2022-05-20,2022-02-19,2022-05-15,2022-01-29,2022-05-20,2022-05-20,Y,0001,60,YEARS,F,WHITE,NOT HISPANIC OR LATINO,TRT,Fulvestrant + Everolimus,TRT,Fulvestrant + Everolimus,USA
NCT01797120,DM,NCT01797120-0088,0088,2022-10-20,2023-11-09,2022-10-20,2023-04-07,2022-10-13,2023-11-09,2023-11-09,Y,0001,70,YEARS,F,WHITE,HISPANIC OR LATINO,TRT,Fulvestrant + Everolimus,TRT,Fulvestrant + Everolimus,USA
NCT01797120,DM,NCT01797120-0089,0089,2022-12-12,2023-09-29,2022-12-12,2023-08-22,2022-11-27,2023-09-29,,,0001,46,YEARS,F,WHITE,HISPANIC OR LATINO,PLC,Fulvestrant + Placebo,PLC,Fulvestrant + Placebo,USA
NCT01797120,DM,NCT01797120-0090,0090,2021-10-02,2022-03-27,2021-10-02,2021-12-26,2021-09-06,2022-03-27,2022-03-27,Y,0001,63,YEARS,F,WHITE,HISPANIC OR LATINO,PLC,Fulvestrant + Placebo,PLC,Fulvestrant + Placebo,USA
NCT01797120,DM,NCT01797120-0091,0091,2021-02-13,2022-10-07,2021-02-13,2022-07-03,2021-01-31,2022-10-07,,,0001,55,YEARS,F,ASIAN,NOT HISPANIC OR LATINO,TRT,Fulvestrant + Everolimus,TRT,Fulvestrant + Everolimus,USA
NCT01797120,DM,NCT01797120-0092,0092,2021-03-25,2021-11-21,2021-03-25,2021-09-10,2021-03-08,2021-11-21,,,0001,42,YEARS,F,ASIAN,NOT HISPANIC OR LATINO,TRT,Fulvestrant + Everolimus,TRT,Fulvestrant + Everolimus,USA
NCT01797120,DM,NCT01797120-0093,0093,2022-03-10,2023-04-13,2022-03-10,2022-06-03,2022-02-12,2023-04-13,2023-04-13,Y,0001,51,YEARS,F,WHITE,NOT HISPANIC OR LATINO,PLC,Fulvestrant + Placebo,PLC,Fulvestrant + Placebo,USA
NCT01797120,DM,NCT01797120-0094,0094,2021-04-04,2021-11-24,2021-04-04,2021-09-20,2021-03-26,2021-11-24,,,0001,63,YEARS,F,WHITE,NOT HISPANIC OR LATINO,TRT,Fulvestrant + Everolimus,TRT,Fulvestrant + Everolimus,USA
NCT01797120,DM,NCT01797120-0095,0095,2021-06-24,2022-05-02,2021-06-24,2021-12-10,2021-06-17,2022-05-02,2022-05-02,Y,0001,63,YEARS,F,WHITE,NOT HISPANIC OR LATINO,PLC,Fulvestrant + Placebo,PLC,Fulvestrant + Placebo,USA
NCT01797120,DM,NCT01797120-0096,0096,2022-02-10,2022-12-07,2022-02-10,2022-10-21,2022-01-15,2022-12-07,,,0001,45,YEARS,F,WHITE,NOT HISPANIC OR LATINO,PLC,Fulvestrant + Placebo,PLC,Fulvestrant + Placebo,USA
NCT01797120,DM,NCT01797120-0097,0097,2021-07-21,2022-03-03,2021-07-21,2021-10-14,2021-06-30,2022-03-03,,,0001,55,YEARS,F,WHITE,NOT HISPANIC OR LATINO,PLC,Fulvestrant + Placebo,PLC,Fulvestrant + Placebo,USA
NCT01797120,DM,NCT01797120-0098,0098,2022-05-14,2023-01-17,2022-05-14,2022-08-07,2022-05-07,2023-01-17,,,0001,59,YEARS,F,BLACK OR AFRICAN AMERICAN,NOT HISPANIC OR LATINO,PLC,Fulvestrant + Placebo,PLC,Fulvestrant + Placebo,USA
NCT01797120,DM,NCT01797120-0099,0099,2022-04-26,2023-04-26,2022-04-26,2023-01-07,2022-03-31,2023-04-26,,,0001,39,YEARS,F,WHITE,NOT HISPANIC OR LATINO,TRT,Fulvestrant + Everolimus,TRT,Fulvestrant + Everolimus,USA
NCT01797120,DM,NCT01797120-0100,0100,2021-11-26,2022-08-15,2021-11-26,2022-02-19,2021-11-13,2022-08-15,,,0001,39,YEARS,F,WHITE,NOT HISPANIC OR LATINO,PLC,Fulvestrant + Placebo,PLC,Fulvestrant + Placebo,USA
NCT01797120,DM,NCT01797120-0101,0101,2022-06-25,2024-01-07,2022-06-25,2022-09-18,2022-06-17,2024-01-07,2024-01-07,Y,0001,61,YEARS,F,WHITE,HISPANIC OR LATINO,PLC,Fulvestrant + Placebo,PLC,Fulvestrant + Placebo,USA
NCT01797120,DM,NCT01797120-0102,0102,2021-07-29,2022-05-21,2021-07-29,2022-01-14,2021-07-10,2022-05-21,,,0001,64,YEARS,F,WHITE,NOT HISPANIC OR LATINO,PLC,Fulvestrant + Placebo,PLC,Fulvestrant + Placebo,USA
NCT01797120,DM,NCT01797120-0103,0103,2022-09-10,2024-01-05,2022-09-10,2023-10-08,2022-08-16,2024-01-05,,,0001,58,YEARS,F,WHITE,NOT HISPANIC OR LATINO,TRT,Fulvestrant + Everolimus,TRT,Fulvestrant + Everolimus,USA
NCT01797120,DM,NCT01797120-0104,0104,2022-07-30,2023-12-11,2022-07-30,2023-04-09,2022-07-10,2023-12-11,2023-12-11,Y,0001,61,YEARS,F,WHITE,HISPANIC OR LATINO,TRT,Fulvestrant + Everolimus,TRT,Fulvestrant + Everolimus,USA
NCT01797120,DM,NCT01797120-0105,0105,2021-01-17,2022-04-08,2021-01-17,2021-07-05,2021-01-01,2022-04-08,2022-04-08,Y,0001,40,YEARS,F,WHITE,NOT HISPANIC OR LATINO,TRT,Fulvestrant + Everolimus,TRT,Fulvestrant + Everolimus,USA
NCT01797120,DM,NCT01797120-0106,0106,2021-04-17,2022-05-10,2021-04-17,2021-07-11,2021-04-06,2022-05-10,2022-05-10,Y,0001,52,YEARS,F,WHITE,NOT HISPANIC OR LATINO,PLC,Fulvestrant + Placebo,PLC,Fulvestrant + Placebo,USA
NCT01797120,DM,NCT01797120-0107,0107,2021-06-14,2022-04-21,2021-06-14,2021-11-30,2021-05-21,2022-04-21,2022-04-21,Y,0001,66,YEARS,F,WHITE,NOT HISPANIC OR LATINO,TRT,Fulvestrant + Everolimus,TRT,Fulvestrant + Everolimus,USA
NCT01797120,DM,NCT01797120-0108,0108,2022-08-30,2023-03-05,2022-08-30,2023-02-15,2022-08-20,2023-03-05,2023-03-05,Y,0001,62,YEARS,F,ASIAN,NOT HISPANIC OR LATINO,TRT,Fulvestrant + Everolimus,TRT,Fulvestrant + Everolimus,USA
NCT01797120,DM,NCT01797120-0109,0109,2022-06-21,2022-10-12,2022-06-21,2022-09-14,2022-06-12,2022-10-12,2022-10-12,Y,0001,53,YEARS,F,WHITE,NOT HISPANIC OR LATINO,PLC,Fulvestrant + Placebo,PLC,Fulvestrant + Placebo,USA
NCT01797120,DM,NCT01797120-0110,0110,2022-09-21,2024-02-08,2022-09-21,2023-08-24,2022-08-25,2024-02-08,,,0001,80,YEARS,F,OTHER,NOT HISPANIC OR LATINO,TRT,Fulvestrant + Everolimus,TRT,Fulvestrant + Everolimus,USA
NCT01797120,DM,NCT01797120-0111,0111,2021-07-11,2021-12-22,2021-07-11,2021-10-04,2021-06-21,2021-12-22,,,0001,57,YEARS,F,WHITE,NOT HISPANIC OR LATINO,TRT,Fulvestrant + Everolimus,TRT,Fulvestrant + Everolimus,USA
NCT01797120,DM,NCT01797120-0112,0112,2021-07-15,2022-06-18,2021-07-15,2022-06-17,2021-06-23,2022-06-18,2022-06-18,Y,0001,51,YEARS,F,WHITE,NOT HISPANIC OR LATINO,TRT,Fulvestrant + Everolimus,TRT,Fulvestrant + Everolimus,USA
NCT01797120,DM,NCT01797120-0113,0113,2021-11-04,2022-03-06,2021-11-04,2022-01-28,2021-10-24,2022-03-06,2022-03-06,Y,0001,66,YEARS,F,WHITE,NOT HISPANIC OR LATINO,TRT,Fulvestrant + Everolimus,TRT,Fulvestrant + Everolimus,USA
NCT01797120,DM,NCT01797120-0114,0114,2021-05-17,2022-04-05,2021-05-17,2021-11-02,2021-05-01,2022-04-05,2022-04-05,Y,0001,54,YEARS,F,WHITE,HISPANIC OR LATINO,TRT,Fulvestrant + Everolimus,TRT,Fulvestrant + Everolimus,USA
NCT01797120,DM,NCT01797120-0115,0115,2021-04-04,2025-06-05,2021-04-04,2024-09-16,2021-03-24,2025-06-05,2025-06-05,Y,0001,47,YEARS,F,WHITE,NOT HISPANIC OR LATINO,TRT,Fulvestrant + Everolimus,TRT,Fulvestrant + Everolimus,USA
NCT01797120,DM,NCT01797120-0116,0116,2021-03-29,2021-11-02,2021-03-29,2021-09-14,2021-03-05,2021-11-02,,,0001,54,YEARS,F,WHITE,NOT HISPANIC OR LATINO,PLC,Fulvestrant + Placebo,PLC,Fulvestrant + Placebo,USA
NCT01797120,DM,NCT01797120-0117,0117,2021-06-10,2023-01-03,2021-06-10,2022-10-28,2021-05-16,2023-01-03,2023-01-03,Y,0001,60,YEARS,F,WHITE,NOT HISPANIC OR LATINO,TRT,Fulvestrant + Everolimus,TRT,Fulvestrant + Everolimus,USA
NCT01797120,DM,NCT01797120-0118,0118,2021-05-28,2021-11-18,2021-05-28,2021-11-13,2021-05-08,2021-11-18,2021-11-18,Y,0001,52,YEARS,F,WHITE,NOT HISPANIC OR LATINO,PLC,Fulvestrant + Placebo,PLC,Fulvestrant + Placebo,USA
NCT01797120,DM,NCT01797120-0119,0119,2022-08-08,2022-11-16,2022-08-08,2022-11-01,2022-07-19,2022-11-16,2022-11-16,Y,0001,56,YEARS,F,OTHER,NOT HISPANIC OR LATINO,PLC,Fulvestrant + Placebo,PLC,Fulvestrant + Placebo,USA
NCT01797120,DM,NCT01797120-0120,0120,2022-04-01,2022-07-29,2022-04-01,2022-06-25,2022-03-23,2022-07-29,2022-07-29,Y,0001,54,YEARS,F,BLACK OR AFRICAN AMERICAN,NOT HISPANIC OR LATINO,TRT,Fulvestrant + Everolimus,TRT,Fulvestrant + Everolimus,USA
NCT01797120,DM,NCT01797120-0121,0121,2021-03-29,2023-03-13,2021-03-29,2022-11-08,2021-03-19,2023-03-13,2023-03-13,Y,0001,34,YEARS,F,ASIAN,NOT HISPANIC OR LATINO,TRT,Fulvestrant + Everolimus,TRT,Fulvestrant + Everolimus,USA
NCT01797120,DM,NCT01797120-0122,0122,2021-01-14,2021-07-10,2021-01-14,2021-04-09,2020-12-29,2021-07-10,,,0001,46,YEARS,F,WHITE,NOT HISPANIC OR LATINO,TRT,Fulvestrant + Everolimus,TRT,Fulvestrant + Everolimus,USA
NCT01797120,DM,NCT01797120-0123,0123,2021-11-11,2022-06-15,2021-11-11,2022-04-29,2021-10-23,2022-06-15,2022-06-15,Y,0001,53,YEARS,F,WHITE,HISPANIC OR LATINO,PLC,Fulvestrant + Placebo,PLC,Fulvestrant + Placebo,USA
NCT01797120,DM,NCT01797120-0124,0124,2022-08-17,2023-11-16,2022-08-17,2023-07-20,2022-07-26,2023-11-16,,,0001,69,YEARS,F,WHITE,NOT HISPANIC OR LATINO,TRT,Fulvestrant + Everolimus,TRT,Fulvestrant + Everolimus,USA
NCT01797120,DM,NCT01797120-0125,0125,2021-05-01,2022-08-30,2021-05-01,2021-07-25,2021-04-22,2022-08-30,2022-08-30,Y,0001,55,YEARS,F,WHITE,NOT HISPANIC OR LATINO,PLC,Fulvestrant + Placebo,PLC,Fulvestrant + Placebo,USA
NCT01797120,DM,NCT01797120-0126,0126,2022-12-17,2024-06-21,2022-12-17,2023-06-04,2022-11-21,2024-06-21,2024-06-21,Y,0001,69,YEARS,F,WHITE,NOT HISPANIC OR LATINO,TRT,Fulvestrant + Everolimus,TRT,Fulvestrant + Everolimus,USA
NCT01797120,DM,NCT01797120-0127,0127,2021-10-09,2025-11-27,2021-10-09,2024-07-14,2021-09-26,2025-11-27,2025-11-27,Y,0001,61,YEARS,F,ASIAN,NOT HISPANIC OR LATINO,TRT,Fulvestrant + Everolimus,TRT,Fulvestrant + Everolimus,USA
NCT01797120,DM,NCT01797120-0128,0128,2022-03-03,2023-10-10,2022-03-03,2023-07-21,2022-02-10,2023-10-10,,,0001,71,YEARS,F,WHITE,NOT HISPANIC OR LATINO,PLC,Fulvestrant + Placebo,PLC,Fulvestrant + Placebo,USA
NCT01797120,DM,NCT01797120-0129,0129,2022-04-16,2024-02-12,2022-04-16,2023-11-26,2022-03-24,2024-02-12,2024-02-12,Y,0001,45,YEARS,F,OTHER,NOT HISPANIC OR LATINO,PLC,Fulvestrant + Placebo,PLC,Fulvestrant + Placebo,USA
NCT01797120,DM,NCT01797120-0130,0130,2021-10-12,2022-08-16,2021-10-12,2022-06-22,2021-09-20,2022-08-16,2022-08-16,Y,0001,68,YEARS,F,WHITE,HISPANIC OR LATINO,PLC,Fulvestrant + Placebo,PLC,Fulvestrant + Placebo,USA
NCT01797120,DM,NCT01797120-0131,0131,2021-10-04,2023-04-11,2021-10-04,2023-01-15,2021-09-19,2023-04-11,,,0001,44,YEARS,F,BLACK OR AFRICAN AMERICAN,NOT HISPANIC OR LATINO,TRT,Fulvestrant + Everolimus,TRT,Fulvestrant + Everolimus,USA
NCT01797120,DM,NCT01797120-0132,0132,2021-11-21,2022-10-11,2021-11-21,2022-02-14,2021-11-14,2022-10-11,2022-10-11,Y,0001,74,YEARS,F,WHITE,NOT HISPANIC OR LATINO,TRT,Fulvestrant + Everolimus,TRT,Fulvestrant + Everolimus,USA
NCT01797120,DM,NCT01797120-0133,0133,2022-06-19,2023-07-09,2022-06-19,2023-07-09,2022-06-02,2023-07-09,,,0001,38,YEARS,F,BLACK OR AFRICAN AMERICAN,NOT HISPANIC OR LATINO,TRT,Fulvestrant + Everolimus,TRT,Fulvestrant + Everolimus,USA
NCT01797120,DM,NCT01797120-0134,0134,2021-08-16,2022-09-27,2021-08-16,2022-07-19,2021-07-29,2022-09-27,2022-09-27,Y,0001,38,YEARS,F,WHITE,NOT HISPANIC OR LATINO,PLC,Fulvestrant + Placebo,PLC,Fulvestrant + Placebo,USA
NCT01797120,DM,NCT01797120-0135,0135,2022-08-19,2023-08-16,2022-08-19,2023-04-29,2022-07-30,2023-08-16,,,0001,59,YEARS,F,ASIAN,HISPANIC OR LATINO,PLC,Fulvestrant + Placebo,PLC,Fulvestrant + Placebo,USA
NCT01797120,DM,NCT01797120-0136,0136,2022-10-10,2023-09-03,2022-10-10,2023-03-28,2022-09-26,2023-09-03,2023-09-03,Y,0001,63,YEARS,F,ASIAN,NOT HISPANIC OR LATINO,PLC,Fulvestrant + Placebo,PLC,Fulvestrant + Placebo,USA
NCT01797120,DM,NCT01797120-0137,0137,2022-07-28,2023-10-21,2022-07-28,2022-10-21,2022-07-15,2023-10-21,2023-10-21,Y,0001,50,YEARS,F,WHITE,NOT HISPANIC OR LATINO,PLC,Fulvestrant + Placebo,PLC,Fulvestrant + Placebo,USA
NCT01797120,DM,NCT01797120-0138,0138,2022-10-16,2026-02-05,2022-10-16,2025-07-21,2022-09-26,2026-02-05,2026-02-05,Y,0001,52,YEARS,F,WHITE,NOT HISPANIC OR LATINO,TRT,Fulvestrant + Everolimus,TRT,Fulvestrant + Everolimus,USA
NCT01797120,DM,NCT01797120-0139,0139,2022-06-02,2024-08-11,2022-06-02,2024-06-28,2022-05-05,2024-08-11,,,0001,54,YEARS,F,WHITE,NOT HISPANIC OR LATINO,PLC,Fulvestrant + Placebo,PLC,Fulvestrant + Placebo,USA
NCT01797120,DM,NCT01797120-0140,0140,2021-09-14,2024-03-10,2021-09-14,2022-08-17,2021-08-23,2024-03-10,2024-03-10,Y,0001,49,YEARS,F,WHITE,NOT HISPANIC OR LATINO,TRT,Fulvestrant + Everolimus,TRT,Fulvestrant + Everolimus,USA
NCT01797120,DM,NCT01797120-0141,0141,2021-05-17,2021-10-08,2021-05-17,2021-08-10,2021-05-01,2021-10-08,2021-10-08,Y,0001,63,YEARS,F,WHITE,NOT HISPANIC OR LATINO,PLC,Fulvestrant + Placebo,PLC,Fulvestrant + Placebo,USA
NCT01797120,DM,NCT01797120-0142,0142,2021-07-27,2023-04-04,2021-07-27,2021-10-20,2021-07-14,2023-04-04,2023-04-04,Y,0001,56,YEARS,F,WHITE,HISPANIC OR LATINO,PLC,Fulvestrant + Placebo,PLC,Fulvestrant + Placebo,USA
NCT01797120,DM,NCT01797120-0143,0143,2022-04-09,2022-12-04,2022-04-09,2022-09-25,2022-03-12,2022-12-04,,,0001,52,YEARS,F,WHITE,NOT HISPANIC OR LATINO,TRT,Fulvestrant + Everolimus,TRT,Fulvestrant + Everolimus,USA
NCT01797120,DM,NCT01797120-0144,0144,2021-05-20,2021-11-01,2021-05-20,2021-09-12,2021-05-02,2021-11-01,,,0001,61,YEARS,F,WHITE,HISPANIC OR LATINO,TRT,Fulvestrant + Everolimus,TRT,Fulvestrant + Everolimus,USA
NCT01797120,DM,NCT01797120-0145,0145,2021-01-05,2022-06-11,2021-01-05,2022-03-02,2020-12-11,2022-06-11,2022-06-11,Y,0001,55,YEARS,F,WHITE,NOT HISPANIC OR LATINO,TRT,Fulvestrant + Everolimus,TRT,Fulvestrant + Everolimus,USA
NCT01797120,DM,NCT01797120-0146,0146,2022-02-28,2022-10-07,2022-02-28,2022-08-16,2022-02-14,2022-10-07,,,0001,62,YEARS,F,WHITE,NOT HISPANIC OR LATINO,TRT,Fulvestrant + Everolimus,TRT,Fulvestrant + Everolimus,USA
NCT01797120,DM,NCT01797120-0147,0147,2021-12-15,2022-07-03,2021-12-15,2022-03-10,2021-12-07,2022-07-03,2022-07-03,Y,0001,42,YEARS,F,WHITE,NOT HISPANIC OR LATINO,PLC,Fulvestrant + Placebo,PLC,Fulvestrant + Placebo,USA
NCT01797120,DM,NCT01797120-0148,0148,2021-10-10,2022-06-28,2021-10-10,2022-03-28,2021-09-24,2022-06-28,2022-06-28,Y,0001,57,YEARS,F,WHITE,NOT HISPANIC OR LATINO,PLC,Fulvestrant + Placebo,PLC,Fulvestrant + Placebo,USA
NCT01797120,DM,NCT01797120-0149,0149,2022-08-10,2023-12-22,2022-08-10,2023-10-05,2022-08-01,2023-12-22,,,0001,51,YEARS,F,WHITE,NOT HISPANIC OR LATINO,TRT,Fulvestrant + Everolimus,TRT,Fulvestrant + Everolimus,USA
NCT01797120,DM,NCT01797120-0150,0150,2022-03-10,2024-09-09,2022-03-10,2023-02-10,2022-02-13,2024-09-09,2024-09-09,Y,0001,50,YEARS,F,WHITE,NOT HISPANIC OR LATINO,PLC,Fulvestrant + Placebo,PLC,Fulvestrant + Placebo,USA
NCT01797120,DM,NCT01797120-0151,0151,2021-08-08,2023-06-25,2021-08-08,2022-12-26,2021-07-18,2023-06-25,2023-06-25,Y,0001,51,YEARS,F,WHITE,NOT HISPANIC OR LATINO,PLC,Fulvestrant + Placebo,PLC,Fulvestrant + Placebo,USA
NCT01797120,DM,NCT01797120-0152,0152,2022-01-09,2022-10-24,2022-01-09,2022-06-27,2021-12-28,2022-10-24,2022-10-24,Y,0001,50,YEARS,F,ASIAN,NOT HISPANIC OR LATINO,PLC,Fulvestrant + Placebo,PLC,Fulvestrant + Placebo,USA
NCT01797120,DM,NCT01797120-0153,0153,2021-10-18,2022-10-31,2021-10-18,2022-04-05,2021-10-07,2022-10-31,2022-10-31,Y,0001,65,YEARS,F,WHITE,NOT HISPANIC OR LATINO,TRT,Fulvestrant + Everolimus,TRT,Fulvestrant + Everolimus,USA
NCT01797120,DM,NCT01797120-0154,0154,2022-07-18,2023-11-11,2022-07-18,2023-06-20,2022-06-23,2023-11-11,2023-11-11,Y,0001,56,YEARS,F,WHITE,NOT HISPANIC OR LATINO,TRT,Fulvestrant + Everolimus,TRT,Fulvestrant + Everolimus,USA
NCT01797120,DM,NCT01797120-0155,0155,2022-11-02,2023-07-19,2022-11-02,2023-04-20,2022-10-12,2023-07-19,2023-07-19,Y,0001,53,YEARS,F,WHITE,NOT HISPANIC OR LATINO,PLC,Fulvestrant + Placebo,PLC,Fulvestrant + Placebo,USA
NCT01797120,DM,NCT01797120-0156,0156,2022-03-14,2022-09-30,2022-03-14,2022-09-30,2022-02-17,2022-09-30,,,0001,55,YEARS,F,WHITE,NOT HISPANIC OR LATINO,TRT,Fulvestrant + Everolimus,TRT,Fulvestrant + Everolimus,USA
NCT01797120,DM,NCT01797120-0157,0157,2022-05-24,2024-05-30,2022-05-24,2023-10-11,2022-05-16,2024-05-30,2024-05-30,Y,0001,54,YEARS,F,WHITE,HISPANIC OR LATINO,PLC,Fulvestrant + Placebo,PLC,Fulvestrant + Placebo,USA
NCT01797120,DM,NCT01797120-0158,0158,2022-03-26,2023-08-16,2022-03-26,2023-02-26,2022-03-07,2023-08-16,2023-08-16,Y,0001,39,YEARS,F,WHITE,NOT HISPANIC OR LATINO,PLC,Fulvestrant + Placebo,PLC,Fulvestrant + Placebo,USA
NCT01797120,DM,NCT01797120-0159,0159,2021-11-23,2022-11-30,2021-11-23,2022-08-03,2021-11-16,2022-11-30,2022-11-30,Y,0001,61,YEARS,F,WHITE,NOT HISPANIC OR LATINO,TRT,Fulvestrant + Everolimus,TRT,Fulvestrant + Everolimus,USA
NCT01797120,DM,NCT01797120-0160,0160,2022-05-06,2023-03-26,2022-05-06,2022-10-22,2022-04-20,2023-03-26,2023-03-26,Y,0001,59,YEARS,F,WHITE,NOT HISPANIC OR LATINO,TRT,Fulvestrant + Everolimus,TRT,Fulvestrant + Everolimus,USA
NCT01797120,DM,NCT01797120-0161,0161,2021-02-23,2022-01-31,2021-02-23,2021-08-11,2021-01-31,2022-01-31,,,0001,50,YEARS,F,ASIAN,HISPANIC OR LATINO,PLC,Fulvestrant + Placebo,PLC,Fulvestrant + Placebo,USA
NCT01797120,DM,NCT01797120-0162,0162,2021-04-05,2021-12-31,2021-04-05,2021-11-01,2021-03-27,2021-12-31,,,0001,51,YEARS,F,ASIAN,NOT HISPANIC OR LATINO,PLC,Fulvestrant + Placebo,PLC,Fulvestrant + Placebo,USA
NCT01797120,DM,NCT01797120-0163,0163,2021-03-01,2023-04-01,2021-03-01,2021-05-25,2021-02-14,2023-04-01,2023-04-01,Y,0001,57,YEARS,F,WHITE,NOT HISPANIC OR LATINO,TRT,Fulvestrant + Everolimus,TRT,Fulvestrant + Everolimus,USA
NCT01797120,DM,NCT01797120-0164,0164,2021-12-03,2022-05-10,2021-12-03,2022-02-26,2021-11-07,2022-05-10,,,0001,60,YEARS,F,WHITE,NOT HISPANIC OR LATINO,PLC,Fulvestrant + Placebo,PLC,Fulvestrant + Placebo,USA
NCT01797120,DM,NCT01797120-0165,0165,2022-10-29,2023-06-10,2022-10-29,2023-04-16,2022-10-12,2023-06-10,2023-06-10,Y,0001,51,YEARS,F,WHITE,NOT HISPANIC OR LATINO,PLC,Fulvestrant + Placebo,PLC,Fulvestrant + Placebo,USA
NCT01797120,DM,NCT01797120-0166,0166,2022-09-29,2023-06-26,2022-09-29,2023-03-17,2022-09-06,2023-06-26,,,0001,59,YEARS,F,WHITE,HISPANIC OR LATINO,PLC,Fulvestrant + Placebo,PLC,Fulvestrant + Placebo,USA
NCT01797120,DM,NCT01797120-0167,0167,2021-06-13,2022-07-30,2021-06-13,2022-05-16,2021-06-05,2022-07-30,2022-07-30,Y,0001,51,YEARS,F,WHITE,NOT HISPANIC OR LATINO,TRT,Fulvestrant + Everolimus,TRT,Fulvestrant + Everolimus,USA
NCT01797120,DM,NCT01797120-0168,0168,2022-07-25,2023-06-08,2022-07-25,2023-01-10,2022-07-18,2023-06-08,2023-06-08,Y,0001,46,YEARS,F,WHITE,NOT HISPANIC OR LATINO,PLC,Fulvestrant + Placebo,PLC,Fulvestrant + Placebo,USA
NCT01797120,DM,NCT01797120-0169,0169,2021-04-17,2022-02-10,2021-04-17,2021-07-11,2021-04-05,2022-02-10,2022-02-10,Y,0001,53,YEARS,F,WHITE,HISPANIC OR LATINO,PLC,Fulvestrant + Placebo,PLC,Fulvestrant + Placebo,USA
NCT01797120,DM,NCT01797120-0170,0170,2021-07-21,2021-11-14,2021-07-21,2021-10-14,2021-07-12,2021-11-14,2021-11-14,Y,0001,53,YEARS,F,WHITE,NOT HISPANIC OR LATINO,PLC,Fulvestrant + Placebo,PLC,Fulvestrant + Placebo,USA
NCT01797120,DM,NCT01797120-0171,0171,2021-10-28,2023-03-22,2021-10-28,2022-12-23,2021-10-06,2023-03-22,,,0001,42,YEARS,F,WHITE,NOT HISPANIC OR LATINO,TRT,Fulvestrant + Everolimus,TRT,Fulvestrant + Everolimus,USA
NCT01797120,DM,NCT01797120-0172,0172,2022-07-05,2024-03-06,2022-07-05,2023-11-22,2022-06-25,2024-03-06,2024-03-06,Y,0001,62,YEARS,F,WHITE,NOT HISPANIC OR LATINO,TRT,Fulvestrant + Everolimus,TRT,Fulvestrant + Everolimus,USA
NCT01797120,DM,NCT01797120-0173,0173,2022-11-11,2025-08-20,2022-11-11,2024-01-06,2022-10-21,2025-08-20,2025-08-20,Y,0001,37,YEARS,F,WHITE,HISPANIC OR LATINO,TRT,Fulvestrant + Everolimus,TRT,Fulvestrant + Everolimus,USA
NCT01797120,DM,NCT01797120-0174,0174,2022-10-11,2023-09-03,2022-10-11,2023-03-29,2022-09-29,2023-09-03,2023-09-03,Y,0001,50,YEARS,F,WHITE,NOT HISPANIC OR LATINO,TRT,Fulvestrant + Everolimus,TRT,Fulvestrant + Everolimus,USA
NCT01797120,DM,NCT01797120-0175,0175,2021-01-14,2021-08-04,2021-01-14,2021-04-09,2020-12-27,2021-08-04,2021-08-04,Y,0001,54,YEARS,F,WHITE,NOT HISPANIC OR LATINO,PLC,Fulvestrant + Placebo,PLC,Fulvestrant + Placebo,USA
NCT01797120,DM,NCT01797120-0176,0176,2022-12-22,2024-04-11,2022-12-22,2024-02-16,2022-11-26,2024-04-11,,,0001,63,YEARS,F,OTHER,NOT HISPANIC OR LATINO,PLC,Fulvestrant + Placebo,PLC,Fulvestrant + Placebo,USA
NCT01797120,DM,NCT01797120-0177,0177,2022-06-19,2024-05-09,2022-06-19,2024-01-29,2022-06-06,2024-05-09,,,0001,31,YEARS,F,WHITE,NOT HISPANIC OR LATINO,PLC,Fulvestrant + Placebo,PLC,Fulvestrant + Placebo,USA
NCT01797120,DM,NCT01797120-0178,0178,2022-05-20,2023-06-14,2022-05-20,2023-04-22,2022-04-23,2023-06-14,2023-06-14,Y,0001,72,YEARS,F,WHITE,HISPANIC OR LATINO,TRT,Fulvestrant + Everolimus,TRT,Fulvestrant + Everolimus,USA
NCT01797120,DM,NCT01797120-0179,0179,2021-07-29,2023-02-04,2021-07-29,2022-12-16,2021-07-16,2023-02-04,2023-02-04,Y,0001,42,YEARS,F,WHITE,NOT HISPANIC OR LATINO,TRT,Fulvestrant + Everolimus,TRT,Fulvestrant + Everolimus,USA
NCT01797120,DM,NCT01797120-0180,0180,2022-04-01,2024-04-15,2022-04-01,2024-02-03,2022-03-06,2024-04-15,2024-04-15,Y,0001,44,YEARS,F,ASIAN,NOT HISPANIC OR LATINO,TRT,Fulvestrant + Everolimus,TRT,Fulvestrant + Everolimus,USA
NCT01797120,DM,NCT01797120-0181,0181,2022-04-14,2024-01-02,2022-04-14,2023-11-07,2022-04-01,2024-01-02,,,0001,46,YEARS,F,WHITE,NOT HISPANIC OR LATINO,PLC,Fulvestrant + Placebo,PLC,Fulvestrant + Placebo,USA
NCT01797120,DM,NCT01797120-0182,0182,2022-04-19,2023-06-05,2022-04-19,2023-03-02,2022-04-10,2023-06-05,,,0001,48,YEARS,F,WHITE,NOT HISPANIC OR LATINO,TRT,Fulvestrant + Everolimus,TRT,Fulvestrant + Everolimus,USA
NCT01797120,DM,NCT01797120-0183,0183,2022-07-27,2024-06-18,2022-07-27,2024-03-12,2022-07-14,2024-06-18,,,0001,33,YEARS,F,WHITE,NOT HISPANIC OR LATINO,PLC,Fulvestrant + Placebo,PLC,Fulvestrant + Placebo,USA
NCT01797120,DM,NCT01797120-0184,0184,2022-02-05,2023-04-12,2022-02-05,2022-07-24,2022-01-24,2023-04-12,2023-04-12,Y,0001,53,YEARS,F,ASIAN,NOT HISPANIC OR LATINO,PLC,Fulvestrant + Placebo,PLC,Fulvestrant + Placebo,USA
NCT01797120,DM,NCT01797120-0185,0185,2021-02-26,2021-12-22,2021-02-26,2021-11-06,2021-02-14,2021-12-22,2021-12-22,Y,0001,50,YEARS,F,WHITE,NOT HISPANIC OR LATINO,PLC,Fulvestrant + Placebo,PLC,Fulvestrant + Placebo,USA
NCT01797120,DM,NCT01797120-0186,0186,2022-10-26,2024-10-04,2022-10-26,2023-09-28,2022-10-06,2024-10-04,2024-10-04,Y,0001,53,YEARS,F,ASIAN,NOT HISPANIC OR LATINO,TRT,Fulvestrant + Everolimus,TRT,Fulvestrant + Everolimus,USA
NCT01797120,DM,NCT01797120-0187,0187,2021-10-08,2026-10-30,2021-10-08,2025-06-14,2021-09-22,2026-10-30,2026-10-30,Y,0001,72,YEARS,F,WHITE,NOT HISPANIC OR LATINO,TRT,Fulvestrant + Everolimus,TRT,Fulvestrant + Everolimus,USA
NCT01797120,DM,NCT01797120-0188,0188,2021-01-05,2023-10-22,2021-01-05,2022-11-09,2020-12-25,2023-10-22,2023-10-22,Y,0001,46,YEARS,F,WHITE,NOT HISPANIC OR LATINO,PLC,Fulvestrant + Placebo,PLC,Fulvestrant + Placebo,USA
NCT01797120,DM,NCT01797120-0189,0189,2022-09-05,2023-03-27,2022-09-05,2023-03-27,2022-08-16,2023-03-27,,,0001,41,YEARS,F,WHITE,NOT HISPANIC OR LATINO,TRT,Fulvestrant + Everolimus,TRT,Fulvestrant + Everolimus,USA
NCT01797120,DM,NCT01797120-0190,0190,2021-11-02,2022-11-21,2021-11-02,2022-10-05,2021-10-05,2022-11-21,,,0001,52,YEARS,F,WHITE,NOT HISPANIC OR LATINO,TRT,Fulvestrant + Everolimus,TRT,Fulvestrant + Everolimus,USA
NCT01797120,DM,NCT01797120-0191,0191,2021-12-10,2022-10-20,2021-12-10,2022-08-20,2021-11-16,2022-10-20,2022-10-20,Y,0001,46,YEARS,F,WHITE,NOT HISPANIC OR LATINO,TRT,Fulvestrant + Everolimus,TRT,Fulvestrant + Everolimus,USA
NCT01797120,DM,NCT01797120-0192,0192,2022-06-27,2024-03-27,2022-06-27,2024-02-13,2022-06-17,2024-03-27,,,0001,54,YEARS,F,WHITE,NOT HISPANIC OR LATINO,TRT,Fulvestrant + Everolimus,TRT,Fulvestrant + Everolimus,USA
NCT01797120,DM,NCT01797120-0193,0193,2022-07-21,2023-01-27,2022-07-21,2022-10-14,2022-07-01,2023-01-27,2023-01-27,Y,0001,62,YEARS,F,BLACK OR AFRICAN AMERICAN,NOT HISPANIC OR LATINO,TRT,Fulvestrant + Everolimus,TRT,Fulvestrant + Everolimus,USA
NCT01797120,DM,NCT01797120-0194,0194,2021-06-03,2024-06-14,2021-06-03,2023-04-07,2021-05-08,2024-06-14,2024-06-14,Y,0001,44,YEARS,F,WHITE,NOT HISPANIC OR LATINO,TRT,Fulvestrant + Everolimus,TRT,Fulvestrant + Everolimus,USA
NCT01797120,DM,NCT01797120-0195,0195,2021-12-20,2023-03-18,2021-12-20,2023-02-14,2021-12-05,2023-03-18,,,0001,80,YEARS,F,WHITE,NOT HISPANIC OR LATINO,PLC,Fulvestrant + Placebo,PLC,Fulvestrant + Placebo,USA
NCT01797120,DM,NCT01797120-0196,0196,2021-12-24,2022-11-27,2021-12-24,2022-11-26,2021-11-26,2022-11-27,2022-11-27,Y,0001,68,YEARS,F,OTHER,NOT HISPANIC OR LATINO,TRT,Fulvestrant + Everolimus,TRT,Fulvestrant + Everolimus,USA
NCT01797120,DM,NCT01797120-0197,0197,2022-11-29,2023-06-11,2022-11-29,2023-02-22,2022-11-09,2023-06-11,,,0001,57,YEARS,F,WHITE,NOT HISPANIC OR LATINO,PLC,Fulvestrant + Placebo,PLC,Fulvestrant + Placebo,USA
NCT01797120,DM,NCT01797120-0198,0198,2022-02-12,2023-11-30,2022-02-12,2023-01-15,2022-01-31,2023-11-30,2023-11-30,Y,0001,62,YEARS,F,ASIAN,NOT HISPANIC OR LATINO,PLC,Fulvestrant + Placebo,PLC,Fulvestrant + Placebo,USA
NCT01797120,DM,NCT01797120-0199,0199,2022-02-16,2023-07-15,2022-02-16,2022-08-04,2022-01-24,2023-07-15,2023-07-15,Y,0001,52,YEARS,F,WHITE,NOT HISPANIC OR LATINO,TRT,Fulvestrant + Everolimus,TRT,Fulvestrant + Everolimus,USA
NCT01797120,DM,NCT01797120-0200,0200,2021-01-30,2021-08-12,2021-01-30,2021-04-25,2021-01-09,2021-08-12,2021-08-12,Y,0001,55,YEARS,F,WHITE,NOT HISPANIC OR LATINO,PLC,Fulvestrant + Placebo,PLC,Fulvestrant + Placebo,USA
