STUDYID,DOMAIN,USUBJID,DSSEQ,DSCAT,DSSCAT,DSTERM,DSDECOD,EPOCH,DSSTDTC,DSSTDY
NCT01797120,DS,NCT01797120-0001,1,PROTOCOL MILESTONE,,INFORMED CONSENT OBTAINED,INFORMED CONSENT OBTAINED,,2021-07-28,-8
NCT01797120,DS,NCT01797120-0001,2,PROTOCOL MILESTONE,,RANDOMIZED,RANDOMIZED,,2021-08-05,1
NCT01797120,DS,NCT01797120-0001,3,DISPOSITION EVENT,FULVESTRANT,LOST TO FOLLOW-UP,LOST TO FOLLOW-UP,CONTINUATION,2023-02-07,552
NCT01797120,DS,NCT01797120-0001,4,DISPOSITION EVENT,EVEROLIMUS,LOST TO FOLLOW-UP,LOST TO FOLLOW-UP,CONTINUATION,2023-02-07,552
NCT01797120,DS,NCT01797120-0001,5,DISPOSITION EVENT,STUDY PARTICIPATION,LOST TO FOLLOW-UP,LOST TO FOLLOW-UP,FOLLOW-UP,2023-05-05,639
NCT01797120,DS,NCT01797120-0002,1,PROTOCOL MILESTONE,,INFORMED CONSENT OBTAINED,INFORMED CONSENT OBTAINED,,2021-12-22,-26
NCT01797120,DS,NCT01797120-0002,2,PROTOCOL MILESTONE,,RANDOMIZED,RANDOMIZED,,2022-01-17,1
NCT01797120,DS,NCT01797120-0002,3,DISPOSITION EVENT,FULVESTRANT,ADVERSE EVENT,ADVERSE EVENT,INDUCTION,2022-04-12,86
NCT01797120,DS,NCT01797120-0002,4,DISPOSITION EVENT,PLACEBO,ADVERSE EVENT,ADVERSE EVENT,INDUCTION,2022-04-12,86
NCT01797120,DS,NCT01797120-0002,5,DISPOSITION EVENT,STUDY PARTICIPATION,DEATH,DEATH,FOLLOW-UP,2022-12-05,323
NCT01797120,DS,NCT01797120-0003,1,PROTOCOL MILESTONE,,INFORMED CONSENT OBTAINED,INFORMED CONSENT OBTAINED,,2020-12-28,-28
NCT01797120,DS,NCT01797120-0003,2,PROTOCOL MILESTONE,,RANDOMIZED,RANDOMIZED,,2021-01-25,1
NCT01797120,DS,NCT01797120-0003,3,DISPOSITION EVENT,FULVESTRANT,PROGRESSIVE DISEASE,PROGRESSIVE DISEASE,INDUCTION,2021-04-20,86
NCT01797120,DS,NCT01797120-0003,4,DISPOSITION EVENT,PLACEBO,PROGRESSIVE DISEASE,PROGRESSIVE DISEASE,INDUCTION,2021-04-20,86
NCT01797120,DS,NCT01797120-0003,5,DISPOSITION EVENT,STUDY PARTICIPATION,LOST TO FOLLOW-UP,LOST TO FOLLOW-UP,FOLLOW-UP,2021-08-09,197
NCT01797120,DS,NCT01797120-0004,1,PROTOCOL MILESTONE,,INFORMED CONSENT OBTAINED,INFORMED CONSENT OBTAINED,,2021-02-11,-26
NCT01797120,DS,NCT01797120-0004,2,PROTOCOL MILESTONE,,RANDOMIZED,RANDOMIZED,,2021-03-09,1
NCT01797120,DS,NCT01797120-0004,3,DISPOSITION EVENT,FULVESTRANT,PROGRESSIVE DISEASE,PROGRESSIVE DISEASE,INDUCTION,2021-06-02,86
NCT01797120,DS,NCT01797120-0004,4,DISPOSITION EVENT,EVEROLIMUS,PROGRESSIVE DISEASE,PROGRESSIVE DISEASE,INDUCTION,2021-06-02,86
NCT01797120,DS,NCT01797120-0004,5,DISPOSITION EVENT,STUDY PARTICIPATION,LOST TO FOLLOW-UP,LOST TO FOLLOW-UP,FOLLOW-UP,2021-08-13,158
NCT01797120,DS,NCT01797120-0005,1,PROTOCOL MILESTONE,,INFORMED CONSENT OBTAINED,INFORMED CONSENT OBTAINED,,2021-08-09,-14
NCT01797120,DS,NCT01797120-0005,2,PROTOCOL MILESTONE,,RANDOMIZED,RANDOMIZED,,2021-08-23,1
NCT01797120,DS,NCT01797120-0005,3,DISPOSITION EVENT,FULVESTRANT,PROGRESSIVE DISEASE,PROGRESSIVE DISEASE,CONTINUATION,2022-10-18,422
NCT01797120,DS,NCT01797120-0005,4,DISPOSITION EVENT,PLACEBO,PROGRESSIVE DISEASE,PROGRESSIVE DISEASE,CONTINUATION,2022-10-18,422
NCT01797120,DS,NCT01797120-0005,5,DISPOSITION EVENT,STUDY PARTICIPATION,DEATH,DEATH,FOLLOW-UP,2023-01-13,509
NCT01797120,DS,NCT01797120-0006,1,PROTOCOL MILESTONE,,INFORMED CONSENT OBTAINED,INFORMED CONSENT OBTAINED,,2022-12-02,-16
NCT01797120,DS,NCT01797120-0006,2,PROTOCOL MILESTONE,,RANDOMIZED,RANDOMIZED,,2022-12-18,1
NCT01797120,DS,NCT01797120-0006,3,DISPOSITION EVENT,FULVESTRANT,PROGRESSIVE DISEASE,PROGRESSIVE DISEASE,INDUCTION,2023-03-13,86
NCT01797120,DS,NCT01797120-0006,4,DISPOSITION EVENT,PLACEBO,PROGRESSIVE DISEASE,PROGRESSIVE DISEASE,INDUCTION,2023-03-13,86
NCT01797120,DS,NCT01797120-0006,5,DISPOSITION EVENT,STUDY PARTICIPATION,LOST TO FOLLOW-UP,LOST TO FOLLOW-UP,FOLLOW-UP,2023-08-04,230
NCT01797120,DS,NCT01797120-0007,1,PROTOCOL MILESTONE,,INFORMED CONSENT OBTAINED,INFORMED CONSENT OBTAINED,,2021-09-25,-24
NCT01797120,DS,NCT01797120-0007,2,PROTOCOL MILESTONE,,RANDOMIZED,RANDOMIZED,,2021-10-19,1
NCT01797120,DS,NCT01797120-0007,3,DISPOSITION EVENT,FULVESTRANT,PROGRESSIVE DISEASE,PROGRESSIVE DISEASE,INDUCTION,2022-04-06,170
NCT01797120,DS,NCT01797120-0007,4,DISPOSITION EVENT,EVEROLIMUS,PROGRESSIVE DISEASE,PROGRESSIVE DISEASE,INDUCTION,2022-04-06,170
NCT01797120,DS,NCT01797120-0007,5,DISPOSITION EVENT,STUDY PARTICIPATION,DEATH,DEATH,FOLLOW-UP,2024-03-07,871
NCT01797120,DS,NCT01797120-0008,1,PROTOCOL MILESTONE,,INFORMED CONSENT OBTAINED,INFORMED CONSENT OBTAINED,,2022-12-12,-16
NCT01797120,DS,NCT01797120-0008,2,PROTOCOL MILESTONE,,RANDOMIZED,RANDOMIZED,,2022-12-28,1
NCT01797120,DS,NCT01797120-0008,3,DISPOSITION EVENT,FULVESTRANT,PROGRESSIVE DISEASE,PROGRESSIVE DISEASE,INDUCTION,2023-03-23,86
NCT01797120,DS,NCT01797120-0008,4,DISPOSITION EVENT,PLACEBO,PROGRESSIVE DISEASE,PROGRESSIVE DISEASE,INDUCTION,2023-03-23,86
NCT01797120,DS,NCT01797120-0008,5,DISPOSITION EVENT,STUDY PARTICIPATION,DEATH,DEATH,FOLLOW-UP,2024-01-06,375
NCT01797120,DS,NCT01797120-0009,1,PROTOCOL MILESTONE,,INFORMED CONSENT OBTAINED,INFORMED CONSENT OBTAINED,,2022-11-26,-7
NCT01797120,DS,NCT01797120-0009,2,PROTOCOL MILESTONE,,RANDOMIZED,RANDOMIZED,,2022-12-03,1
NCT01797120,DS,NCT01797120-0009,3,DISPOSITION EVENT,FULVESTRANT,WITHDRAWAL BY SUBJECT,WITHDRAWAL BY SUBJECT,CONTINUATION,2024-03-01,455
NCT01797120,DS,NCT01797120-0009,4,DISPOSITION EVENT,EVEROLIMUS,WITHDRAWAL BY SUBJECT,WITHDRAWAL BY SUBJECT,CONTINUATION,2024-03-01,455
NCT01797120,DS,NCT01797120-0009,5,DISPOSITION EVENT,STUDY PARTICIPATION,DEATH,DEATH,FOLLOW-UP,2025-06-12,923
NCT01797120,DS,NCT01797120-0010,1,PROTOCOL MILESTONE,,INFORMED CONSENT OBTAINED,INFORMED CONSENT OBTAINED,,2022-11-15,-26
NCT01797120,DS,NCT01797120-0010,2,PROTOCOL MILESTONE,,RANDOMIZED,RANDOMIZED,,2022-12-11,1
NCT01797120,DS,NCT01797120-0010,3,DISPOSITION EVENT,FULVESTRANT,PROGRESSIVE DISEASE,PROGRESSIVE DISEASE,CONTINUATION,2024-07-22,590
NCT01797120,DS,NCT01797120-0010,4,DISPOSITION EVENT,PLACEBO,PROGRESSIVE DISEASE,PROGRESSIVE DISEASE,CONTINUATION,2024-07-22,590
NCT01797120,DS,NCT01797120-0010,5,DISPOSITION EVENT,STUDY PARTICIPATION,DEATH,DEATH,FOLLOW-UP,2025-05-03,875
NCT01797120,DS,NCT01797120-0011,1,PROTOCOL MILESTONE,,INFORMED CONSENT OBTAINED,INFORMED CONSENT OBTAINED,,2022-12-18,-11
NCT01797120,DS,NCT01797120-0011,2,PROTOCOL MILESTONE,,RANDOMIZED,RANDOMIZED,,2022-12-29,1
NCT01797120,DS,NCT01797120-0011,3,DISPOSITION EVENT,FULVESTRANT,LOST TO FOLLOW-UP,LOST TO FOLLOW-UP,INDUCTION,2023-10-07,283
NCT01797120,DS,NCT01797120-0011,4,DISPOSITION EVENT,EVEROLIMUS,LOST TO FOLLOW-UP,LOST TO FOLLOW-UP,INDUCTION,2023-10-07,283
NCT01797120,DS,NCT01797120-0011,5,DISPOSITION EVENT,STUDY PARTICIPATION,LOST TO FOLLOW-UP,LOST TO FOLLOW-UP,FOLLOW-UP,2024-01-09,377
NCT01797120,DS,NCT01797120-0012,1,PROTOCOL MILESTONE,,INFORMED CONSENT OBTAINED,INFORMED CONSENT OBTAINED,,2022-06-16,-24
NCT01797120,DS,NCT01797120-0012,2,PROTOCOL MILESTONE,,RANDOMIZED,RANDOMIZED,,2022-07-10,1
NCT01797120,DS,NCT01797120-0012,3,DISPOSITION EVENT,FULVESTRANT,PROGRESSIVE DISEASE,PROGRESSIVE DISEASE,CONTINUATION,2024-05-13,674
NCT01797120,DS,NCT01797120-0012,4,DISPOSITION EVENT,PLACEBO,PROGRESSIVE DISEASE,PROGRESSIVE DISEASE,CONTINUATION,2024-05-13,674
NCT01797120,DS,NCT01797120-0012,5,DISPOSITION EVENT,STUDY PARTICIPATION,DEATH,DEATH,FOLLOW-UP,2025-08-07,1125
NCT01797120,DS,NCT01797120-0013,1,PROTOCOL MILESTONE,,INFORMED CONSENT OBTAINED,INFORMED CONSENT OBTAINED,,2021-01-06,-27
NCT01797120,DS,NCT01797120-0013,2,PROTOCOL MILESTONE,,RANDOMIZED,RANDOMIZED,,2021-02-02,1
NCT01797120,DS,NCT01797120-0013,3,DISPOSITION EVENT,FULVESTRANT,PROGRESSIVE DISEASE,PROGRESSIVE DISEASE,INDUCTION,2021-04-28,86
NCT01797120,DS,NCT01797120-0013,4,DISPOSITION EVENT,PLACEBO,PROGRESSIVE DISEASE,PROGRESSIVE DISEASE,INDUCTION,2021-04-28,86
NCT01797120,DS,NCT01797120-0013,5,DISPOSITION EVENT,STUDY PARTICIPATION,DEATH,DEATH,FOLLOW-UP,2021-07-24,173
NCT01797120,DS,NCT01797120-0014,1,PROTOCOL MILESTONE,,INFORMED CONSENT OBTAINED,INFORMED CONSENT OBTAINED,,2020-12-15,-28
NCT01797120,DS,NCT01797120-0014,2,PROTOCOL MILESTONE,,RANDOMIZED,RANDOMIZED,,2021-01-12,1
NCT01797120,DS,NCT01797120-0014,3,DISPOSITION EVENT,FULVESTRANT,PROGRESSIVE DISEASE,PROGRESSIVE DISEASE,INDUCTION,2021-09-22,254
NCT01797120,DS,NCT01797120-0014,4,DISPOSITION EVENT,PLACEBO,PROGRESSIVE DISEASE,PROGRESSIVE DISEASE,INDUCTION,2021-09-22,254
NCT01797120,DS,NCT01797120-0014,5,DISPOSITION EVENT,STUDY PARTICIPATION,DEATH,DEATH,FOLLOW-UP,2022-06-24,529
NCT01797120,DS,NCT01797120-0015,1,PROTOCOL MILESTONE,,INFORMED CONSENT OBTAINED,INFORMED CONSENT OBTAINED,,2022-08-17,-23
NCT01797120,DS,NCT01797120-0015,2,PROTOCOL MILESTONE,,RANDOMIZED,RANDOMIZED,,2022-09-09,1
NCT01797120,DS,NCT01797120-0015,3,DISPOSITION EVENT,FULVESTRANT,PROGRESSIVE DISEASE,PROGRESSIVE DISEASE,INDUCTION,2023-05-20,254
NCT01797120,DS,NCT01797120-0015,4,DISPOSITION EVENT,EVEROLIMUS,PROGRESSIVE DISEASE,PROGRESSIVE DISEASE,INDUCTION,2023-05-20,254
NCT01797120,DS,NCT01797120-0015,5,DISPOSITION EVENT,STUDY PARTICIPATION,WITHDRAWAL BY SUBJECT,WITHDRAWAL BY SUBJECT,FOLLOW-UP,2023-10-07,394
NCT01797120,DS,NCT01797120-0016,1,PROTOCOL MILESTONE,,INFORMED CONSENT OBTAINED,INFORMED CONSENT OBTAINED,,2021-07-22,-10
NCT01797120,DS,NCT01797120-0016,2,PROTOCOL MILESTONE,,RANDOMIZED,RANDOMIZED,,2021-08-01,1
NCT01797120,DS,NCT01797120-0016,3,DISPOSITION EVENT,FULVESTRANT,PROGRESSIVE DISEASE,PROGRESSIVE DISEASE,INDUCTION,2022-01-17,170
NCT01797120,DS,NCT01797120-0016,4,DISPOSITION EVENT,EVEROLIMUS,PROGRESSIVE DISEASE,PROGRESSIVE DISEASE,INDUCTION,2022-01-17,170
NCT01797120,DS,NCT01797120-0016,5,DISPOSITION EVENT,STUDY PARTICIPATION,DEATH,DEATH,FOLLOW-UP,2023-07-11,710
NCT01797120,DS,NCT01797120-0017,1,PROTOCOL MILESTONE,,INFORMED CONSENT OBTAINED,INFORMED CONSENT OBTAINED,,2021-05-02,-17
NCT01797120,DS,NCT01797120-0017,2,PROTOCOL MILESTONE,,RANDOMIZED,RANDOMIZED,,2021-05-19,1
NCT01797120,DS,NCT01797120-0017,3,DISPOSITION EVENT,FULVESTRANT,PROGRESSIVE DISEASE,PROGRESSIVE DISEASE,CONTINUATION,2022-10-06,506
NCT01797120,DS,NCT01797120-0017,4,DISPOSITION EVENT,EVEROLIMUS,PROGRESSIVE DISEASE,PROGRESSIVE DISEASE,CONTINUATION,2022-10-06,506
NCT01797120,DS,NCT01797120-0017,5,DISPOSITION EVENT,STUDY PARTICIPATION,DEATH,DEATH,FOLLOW-UP,2023-01-23,615
NCT01797120,DS,NCT01797120-0018,1,PROTOCOL MILESTONE,,INFORMED CONSENT OBTAINED,INFORMED CONSENT OBTAINED,,2022-11-18,-8
NCT01797120,DS,NCT01797120-0018,2,PROTOCOL MILESTONE,,RANDOMIZED,RANDOMIZED,,2022-11-26,1
NCT01797120,DS,NCT01797120-0018,3,DISPOSITION EVENT,FULVESTRANT,PROGRESSIVE DISEASE,PROGRESSIVE DISEASE,INDUCTION,2023-05-14,170
NCT01797120,DS,NCT01797120-0018,4,DISPOSITION EVENT,PLACEBO,PROGRESSIVE DISEASE,PROGRESSIVE DISEASE,INDUCTION,2023-05-14,170
NCT01797120,DS,NCT01797120-0018,5,DISPOSITION EVENT,STUDY PARTICIPATION,DEATH,DEATH,FOLLOW-UP,2023-06-20,207
NCT01797120,DS,NCT01797120-0019,1,PROTOCOL MILESTONE,,INFORMED CONSENT OBTAINED,INFORMED CONSENT OBTAINED,,2022-01-30,-27
NCT01797120,DS,NCT01797120-0019,2,PROTOCOL MILESTONE,,RANDOMIZED,RANDOMIZED,,2022-02-26,1
NCT01797120,DS,NCT01797120-0019,3,DISPOSITION EVENT,FULVESTRANT,PROGRESSIVE DISEASE,PROGRESSIVE DISEASE,CONTINUATION,2025-11-02,1346
NCT01797120,DS,NCT01797120-0019,4,DISPOSITION EVENT,EVEROLIMUS,PROGRESSIVE DISEASE,PROGRESSIVE DISEASE,CONTINUATION,2025-11-02,1346
NCT01797120,DS,NCT01797120-0019,5,DISPOSITION EVENT,STUDY PARTICIPATION,LOST TO FOLLOW-UP,LOST TO FOLLOW-UP,FOLLOW-UP,2026-03-20,1484
NCT01797120,DS,NCT01797120-0020,1,PROTOCOL MILESTONE,,INFORMED CONSENT OBTAINED,INFORMED CONSENT OBTAINED,,2022-09-19,-11
NCT01797120,DS,NCT01797120-0020,2,PROTOCOL MILESTONE,,RANDOMIZED,RANDOMIZED,,2022-09-30,1
NCT01797120,DS,NCT01797120-0020,3,DISPOSITION EVENT,FULVESTRANT,PROGRESSIVE DISEASE,PROGRESSIVE DISEASE,INDUCTION,2023-06-10,254
NCT01797120,DS,NCT01797120-0020,4,DISPOSITION EVENT,EVEROLIMUS,PROGRESSIVE DISEASE,PROGRESSIVE DISEASE,INDUCTION,2023-06-10,254
NCT01797120,DS,NCT01797120-0020,5,DISPOSITION EVENT,STUDY PARTICIPATION,LOST TO FOLLOW-UP,LOST TO FOLLOW-UP,FOLLOW-UP,2023-07-21,295
NCT01797120,DS,NCT01797120-0021,1,PROTOCOL MILESTONE,,INFORMED CONSENT OBTAINED,INFORMED CONSENT OBTAINED,,2022-10-20,-11
NCT01797120,DS,NCT01797120-0021,2,PROTOCOL MILESTONE,,RANDOMIZED,RANDOMIZED,,2022-10-31,1
NCT01797120,DS,NCT01797120-0021,3,DISPOSITION EVENT,FULVESTRANT,PROGRESSIVE DISEASE,PROGRESSIVE DISEASE,INDUCTION,2023-01-24,86
NCT01797120,DS,NCT01797120-0021,4,DISPOSITION EVENT,PLACEBO,PROGRESSIVE DISEASE,PROGRESSIVE DISEASE,INDUCTION,2023-01-24,86
NCT01797120,DS,NCT01797120-0021,5,DISPOSITION EVENT,STUDY PARTICIPATION,DEATH,DEATH,FOLLOW-UP,2023-04-27,179
NCT01797120,DS,NCT01797120-0022,1,PROTOCOL MILESTONE,,INFORMED CONSENT OBTAINED,INFORMED CONSENT OBTAINED,,2022-08-24,-23
NCT01797120,DS,NCT01797120-0022,2,PROTOCOL MILESTONE,,RANDOMIZED,RANDOMIZED,,2022-09-16,1
NCT01797120,DS,NCT01797120-0022,3,DISPOSITION EVENT,FULVESTRANT,PROGRESSIVE DISEASE,PROGRESSIVE DISEASE,INDUCTION,2022-12-10,86
NCT01797120,DS,NCT01797120-0022,4,DISPOSITION EVENT,PLACEBO,PROGRESSIVE DISEASE,PROGRESSIVE DISEASE,INDUCTION,2022-12-10,86
NCT01797120,DS,NCT01797120-0022,5,DISPOSITION EVENT,STUDY PARTICIPATION,LOST TO FOLLOW-UP,LOST TO FOLLOW-UP,FOLLOW-UP,2023-04-07,204
NCT01797120,DS,NCT01797120-0023,1,PROTOCOL MILESTONE,,INFORMED CONSENT OBTAINED,INFORMED CONSENT OBTAINED,,2022-04-11,-23
NCT01797120,DS,NCT01797120-0023,2,PROTOCOL MILESTONE,,RANDOMIZED,RANDOMIZED,,2022-05-04,1
NCT01797120,DS,NCT01797120-0023,3,DISPOSITION EVENT,FULVESTRANT,PROGRESSIVE DISEASE,PROGRESSIVE DISEASE,INDUCTION,2022-07-28,86
NCT01797120,DS,NCT01797120-0023,4,DISPOSITION EVENT,EVEROLIMUS,PROGRESSIVE DISEASE,PROGRESSIVE DISEASE,INDUCTION,2022-07-28,86
NCT01797120,DS,NCT01797120-0023,5,DISPOSITION EVENT,STUDY PARTICIPATION,DEATH,DEATH,FOLLOW-UP,2022-09-22,142
NCT01797120,DS,NCT01797120-0024,1,PROTOCOL MILESTONE,,INFORMED CONSENT OBTAINED,INFORMED CONSENT OBTAINED,,2022-06-02,-22
NCT01797120,DS,NCT01797120-0024,2,PROTOCOL MILESTONE,,RANDOMIZED,RANDOMIZED,,2022-06-24,1
NCT01797120,DS,NCT01797120-0024,3,DISPOSITION EVENT,FULVESTRANT,PROGRESSIVE DISEASE,PROGRESSIVE DISEASE,INDUCTION,2022-12-10,170
NCT01797120,DS,NCT01797120-0024,4,DISPOSITION EVENT,PLACEBO,PROGRESSIVE DISEASE,PROGRESSIVE DISEASE,INDUCTION,2022-12-10,170
NCT01797120,DS,NCT01797120-0024,5,DISPOSITION EVENT,STUDY PARTICIPATION,DEATH,DEATH,FOLLOW-UP,2023-02-23,245
NCT01797120,DS,NCT01797120-0025,1,PROTOCOL MILESTONE,,INFORMED CONSENT OBTAINED,INFORMED CONSENT OBTAINED,,2021-07-20,-17
NCT01797120,DS,NCT01797120-0025,2,PROTOCOL MILESTONE,,RANDOMIZED,RANDOMIZED,,2021-08-06,1
NCT01797120,DS,NCT01797120-0025,3,DISPOSITION EVENT,FULVESTRANT,PROGRESSIVE DISEASE,PROGRESSIVE DISEASE,INDUCTION,2021-10-30,86
NCT01797120,DS,NCT01797120-0025,4,DISPOSITION EVENT,EVEROLIMUS,PROGRESSIVE DISEASE,PROGRESSIVE DISEASE,INDUCTION,2021-10-30,86
NCT01797120,DS,NCT01797120-0025,5,DISPOSITION EVENT,STUDY PARTICIPATION,DEATH,DEATH,FOLLOW-UP,2023-03-18,590
NCT01797120,DS,NCT01797120-0026,1,PROTOCOL MILESTONE,,INFORMED CONSENT OBTAINED,INFORMED CONSENT OBTAINED,,2022-10-06,-20
NCT01797120,DS,NCT01797120-0026,2,PROTOCOL MILESTONE,,RANDOMIZED,RANDOMIZED,,2022-10-26,1
NCT01797120,DS,NCT01797120-0026,3,DISPOSITION EVENT,FULVESTRANT,PROGRESSIVE DISEASE,PROGRESSIVE DISEASE,INDUCTION,2023-04-13,170
NCT01797120,DS,NCT01797120-0026,4,DISPOSITION EVENT,PLACEBO,PROGRESSIVE DISEASE,PROGRESSIVE DISEASE,INDUCTION,2023-04-13,170
NCT01797120,DS,NCT01797120-0026,5,DISPOSITION EVENT,STUDY PARTICIPATION,DEATH,DEATH,FOLLOW-UP,2023-05-23,210
NCT01797120,DS,NCT01797120-0027,1,PROTOCOL MILESTONE,,INFORMED CONSENT OBTAINED,INFORMED CONSENT OBTAINED,,2021-10-20,-15
NCT01797120,DS,NCT01797120-0027,2,PROTOCOL MILESTONE,,RANDOMIZED,RANDOMIZED,,2021-11-04,1
NCT01797120,DS,NCT01797120-0027,3,DISPOSITION EVENT,FULVESTRANT,PROGRESSIVE DISEASE,PROGRESSIVE DISEASE,INDUCTION,2022-04-22,170
NCT01797120,DS,NCT01797120-0027,4,DISPOSITION EVENT,PLACEBO,PROGRESSIVE DISEASE,PROGRESSIVE DISEASE,INDUCTION,2022-04-22,170
NCT01797120,DS,NCT01797120-0027,5,DISPOSITION EVENT,STUDY PARTICIPATION,DEATH,DEATH,FOLLOW-UP,2022-05-31,209
NCT01797120,DS,NCT01797120-0028,1,PROTOCOL MILESTONE,,INFORMED CONSENT OBTAINED,INFORMED CONSENT OBTAINED,,2021-06-06,-18
NCT01797120,DS,NCT01797120-0028,2,PROTOCOL MILESTONE,,RANDOMIZED,RANDOMIZED,,2021-06-24,1
NCT01797120,DS,NCT01797120-0028,3,DISPOSITION EVENT,FULVESTRANT,PROGRESSIVE DISEASE,PROGRESSIVE DISEASE,INDUCTION,2021-09-17,86
NCT01797120,DS,NCT01797120-0028,4,DISPOSITION EVENT,PLACEBO,PROGRESSIVE DISEASE,PROGRESSIVE DISEASE,INDUCTION,2021-09-17,86
NCT01797120,DS,NCT01797120-0028,5,DISPOSITION EVENT,STUDY PARTICIPATION,DEATH,DEATH,FOLLOW-UP,2022-05-30,341
NCT01797120,DS,NCT01797120-0029,1,PROTOCOL MILESTONE,,INFORMED CONSENT OBTAINED,INFORMED CONSENT OBTAINED,,2021-05-02,-27
NCT01797120,DS,NCT01797120-0029,2,PROTOCOL MILESTONE,,RANDOMIZED,RANDOMIZED,,2021-05-29,1
NCT01797120,DS,NCT01797120-0029,3,DISPOSITION EVENT,FULVESTRANT,PROGRESSIVE DISEASE,PROGRESSIVE DISEASE,INDUCTION,2022-02-06,254
NCT01797120,DS,NCT01797120-0029,4,DISPOSITION EVENT,PLACEBO,PROGRESSIVE DISEASE,PROGRESSIVE DISEASE,INDUCTION,2022-02-06,254
NCT01797120,DS,NCT01797120-0029,5,DISPOSITION EVENT,STUDY PARTICIPATION,DEATH,DEATH,FOLLOW-UP,2022-09-10,470
NCT01797120,DS,NCT01797120-0030,1,PROTOCOL MILESTONE,,INFORMED CONSENT OBTAINED,INFORMED CONSENT OBTAINED,,2022-06-13,-13
NCT01797120,DS,NCT01797120-0030,2,PROTOCOL MILESTONE,,RANDOMIZED,RANDOMIZED,,2022-06-26,1
NCT01797120,DS,NCT01797120-0030,3,DISPOSITION EVENT,FULVESTRANT,PROGRESSIVE DISEASE,PROGRESSIVE DISEASE,INDUCTION,2023-03-06,254
NCT01797120,DS,NCT01797120-0030,4,DISPOSITION EVENT,EVEROLIMUS,PROGRESSIVE DISEASE,PROGRESSIVE DISEASE,INDUCTION,2023-03-06,254
NCT01797120,DS,NCT01797120-0030,5,DISPOSITION EVENT,STUDY PARTICIPATION,DEATH,DEATH,FOLLOW-UP,2023-04-03,282
NCT01797120,DS,NCT01797120-0031,1,PROTOCOL MILESTONE,,INFORMED CONSENT OBTAINED,INFORMED CONSENT OBTAINED,,2022-07-18,-16
NCT01797120,DS,NCT01797120-0031,2,PROTOCOL MILESTONE,,RANDOMIZED,RANDOMIZED,,2022-08-03,1
NCT01797120,DS,NCT01797120-0031,3,DISPOSITION EVENT,FULVESTRANT,PROGRESSIVE DISEASE,PROGRESSIVE DISEASE,INDUCTION,2022-10-27,86
NCT01797120,DS,NCT01797120-0031,4,DISPOSITION EVENT,EVEROLIMUS,PROGRESSIVE DISEASE,PROGRESSIVE DISEASE,INDUCTION,2022-10-27,86
NCT01797120,DS,NCT01797120-0031,5,DISPOSITION EVENT,STUDY PARTICIPATION,LOST TO FOLLOW-UP,LOST TO FOLLOW-UP,FOLLOW-UP,2023-04-02,243
NCT01797120,DS,NCT01797120-0032,1,PROTOCOL MILESTONE,,INFORMED CONSENT OBTAINED,INFORMED CONSENT OBTAINED,,2022-06-10,-22
NCT01797120,DS,NCT01797120-0032,2,PROTOCOL MILESTONE,,RANDOMIZED,RANDOMIZED,,2022-07-02,1
NCT01797120,DS,NCT01797120-0032,3,DISPOSITION EVENT,FULVESTRANT,PROGRESSIVE DISEASE,PROGRESSIVE DISEASE,CONTINUATION,2025-06-29,1094
NCT01797120,DS,NCT01797120-0032,4,DISPOSITION EVENT,EVEROLIMUS,PROGRESSIVE DISEASE,PROGRESSIVE DISEASE,CONTINUATION,2025-06-29,1094
NCT01797120,DS,NCT01797120-0032,5,DISPOSITION EVENT,STUDY PARTICIPATION,WITHDRAWAL BY SUBJECT,WITHDRAWAL BY SUBJECT,FOLLOW-UP,2025-12-19,1267
NCT01797120,DS,NCT01797120-0033,1,PROTOCOL MILESTONE,,INFORMED CONSENT OBTAINED,INFORMED CONSENT OBTAINED,,2022-01-19,-10
NCT01797120,DS,NCT01797120-0033,2,PROTOCOL MILESTONE,,RANDOMIZED,RANDOMIZED,,2022-01-29,1
NCT01797120,DS,NCT01797120-0033,3,DISPOSITION EVENT,FULVESTRANT,PROGRESSIVE DISEASE,PROGRESSIVE DISEASE,CONTINUATION,2023-03-26,422
NCT01797120,DS,NCT01797120-0033,4,DISPOSITION EVENT,PLACEBO,PROGRESSIVE DISEASE,PROGRESSIVE DISEASE,CONTINUATION,2023-03-26,422
NCT01797120,DS,NCT01797120-0033,5,DISPOSITION EVENT,STUDY PARTICIPATION,DEATH,DEATH,FOLLOW-UP,2023-05-26,483
NCT01797120,DS,NCT01797120-0034,1,PROTOCOL MILESTONE,,INFORMED CONSENT OBTAINED,INFORMED CONSENT OBTAINED,,2021-02-17,-26
NCT01797120,DS,NCT01797120-0034,2,PROTOCOL MILESTONE,,RANDOMIZED,RANDOMIZED,,2021-03-15,1
NCT01797120,DS,NCT01797120-0034,3,DISPOSITION EVENT,FULVESTRANT,PROGRESSIVE DISEASE,PROGRESSIVE DISEASE,CONTINUATION,2022-02-15,338
NCT01797120,DS,NCT01797120-0034,4,DISPOSITION EVENT,PLACEBO,PROGRESSIVE DISEASE,PROGRESSIVE DISEASE,CONTINUATION,2022-02-15,338
NCT01797120,DS,NCT01797120-0034,5,DISPOSITION EVENT,STUDY PARTICIPATION,DEATH,DEATH,FOLLOW-UP,2022-05-15,427
NCT01797120,DS,NCT01797120-0035,1,PROTOCOL MILESTONE,,INFORMED CONSENT OBTAINED,INFORMED CONSENT OBTAINED,,2021-10-06,-19
NCT01797120,DS,NCT01797120-0035,2,PROTOCOL MILESTONE,,RANDOMIZED,RANDOMIZED,,2021-10-25,1
NCT01797120,DS,NCT01797120-0035,3,DISPOSITION EVENT,FULVESTRANT,PROGRESSIVE DISEASE,PROGRESSIVE DISEASE,CONTINUATION,2022-12-20,422
NCT01797120,DS,NCT01797120-0035,4,DISPOSITION EVENT,EVEROLIMUS,PROGRESSIVE DISEASE,PROGRESSIVE DISEASE,CONTINUATION,2022-12-20,422
NCT01797120,DS,NCT01797120-0035,5,DISPOSITION EVENT,STUDY PARTICIPATION,DEATH,DEATH,FOLLOW-UP,2024-05-11,930
NCT01797120,DS,NCT01797120-0036,1,PROTOCOL MILESTONE,,INFORMED CONSENT OBTAINED,INFORMED CONSENT OBTAINED,,2022-01-05,-25
NCT01797120,DS,NCT01797120-0036,2,PROTOCOL MILESTONE,,RANDOMIZED,RANDOMIZED,,2022-01-30,1
NCT01797120,DS,NCT01797120-0036,3,DISPOSITION EVENT,FULVESTRANT,PROGRESSIVE DISEASE,PROGRESSIVE DISEASE,INDUCTION,2022-10-10,254
NCT01797120,DS,NCT01797120-0036,4,DISPOSITION EVENT,PLACEBO,PROGRESSIVE DISEASE,PROGRESSIVE DISEASE,INDUCTION,2022-10-10,254
NCT01797120,DS,NCT01797120-0036,5,DISPOSITION EVENT,STUDY PARTICIPATION,DEATH,DEATH,FOLLOW-UP,2023-02-27,394
NCT01797120,DS,NCT01797120-0037,1,PROTOCOL MILESTONE,,INFORMED CONSENT OBTAINED,INFORMED CONSENT OBTAINED,,2022-05-31,-24
NCT01797120,DS,NCT01797120-0037,2,PROTOCOL MILESTONE,,RANDOMIZED,RANDOMIZED,,2022-06-24,1
NCT01797120,DS,NCT01797120-0037,3,DISPOSITION EVENT,FULVESTRANT,WITHDRAWAL BY SUBJECT,WITHDRAWAL BY SUBJECT,CONTINUATION,2024-01-28,584
NCT01797120,DS,NCT01797120-0037,4,DISPOSITION EVENT,PLACEBO,WITHDRAWAL BY SUBJECT,WITHDRAWAL BY SUBJECT,CONTINUATION,2024-01-28,584
NCT01797120,DS,NCT01797120-0037,5,DISPOSITION EVENT,STUDY PARTICIPATION,WITHDRAWAL BY SUBJECT,WITHDRAWAL BY SUBJECT,FOLLOW-UP,2024-01-28,584
NCT01797120,DS,NCT01797120-0038,1,PROTOCOL MILESTONE,,INFORMED CONSENT OBTAINED,INFORMED CONSENT OBTAINED,,2022-02-17,-17
NCT01797120,DS,NCT01797120-0038,2,PROTOCOL MILESTONE,,RANDOMIZED,RANDOMIZED,,2022-03-06,1
NCT01797120,DS,NCT01797120-0038,3,DISPOSITION EVENT,FULVESTRANT,PROGRESSIVE DISEASE,PROGRESSIVE DISEASE,CONTINUATION,2024-06-24,842
NCT01797120,DS,NCT01797120-0038,4,DISPOSITION EVENT,EVEROLIMUS,PROGRESSIVE DISEASE,PROGRESSIVE DISEASE,CONTINUATION,2024-06-24,842
NCT01797120,DS,NCT01797120-0038,5,DISPOSITION EVENT,STUDY PARTICIPATION,DEATH,DEATH,FOLLOW-UP,2024-12-30,1031
NCT01797120,DS,NCT01797120-0039,1,PROTOCOL MILESTONE,,INFORMED CONSENT OBTAINED,INFORMED CONSENT OBTAINED,,2021-07-10,-9
NCT01797120,DS,NCT01797120-0039,2,PROTOCOL MILESTONE,,RANDOMIZED,RANDOMIZED,,2021-07-19,1
NCT01797120,DS,NCT01797120-0039,3,DISPOSITION EVENT,FULVESTRANT,PROGRESSIVE DISEASE,PROGRESSIVE DISEASE,INDUCTION,2022-03-29,254
NCT01797120,DS,NCT01797120-0039,4,DISPOSITION EVENT,EVEROLIMUS,PROGRESSIVE DISEASE,PROGRESSIVE DISEASE,INDUCTION,2022-03-29,254
NCT01797120,DS,NCT01797120-0039,5,DISPOSITION EVENT,STUDY PARTICIPATION,LOST TO FOLLOW-UP,LOST TO FOLLOW-UP,FOLLOW-UP,2022-07-06,353
NCT01797120,DS,NCT01797120-0040,1,PROTOCOL MILESTONE,,INFORMED CONSENT OBTAINED,INFORMED CONSENT OBTAINED,,2022-02-20,-8
NCT01797120,DS,NCT01797120-0040,2,PROTOCOL MILESTONE,,RANDOMIZED,RANDOMIZED,,2022-02-28,1
NCT01797120,DS,NCT01797120-0040,3,DISPOSITION EVENT,FULVESTRANT,PROGRESSIVE DISEASE,PROGRESSIVE DISEASE,INDUCTION,2022-08-16,170
NCT01797120,DS,NCT01797120-0040,4,DISPOSITION EVENT,PLACEBO,PROGRESSIVE DISEASE,PROGRESSIVE DISEASE,INDUCTION,2022-08-16,170
NCT01797120,DS,NCT01797120-0040,5,DISPOSITION EVENT,STUDY PARTICIPATION,DEATH,DEATH,FOLLOW-UP,2022-09-20,205
NCT01797120,DS,NCT01797120-0041,1,PROTOCOL MILESTONE,,INFORMED CONSENT OBTAINED,INFORMED CONSENT OBTAINED,,2021-02-13,-18
NCT01797120,DS,NCT01797120-0041,2,PROTOCOL MILESTONE,,RANDOMIZED,RANDOMIZED,,2021-03-03,1
NCT01797120,DS,NCT01797120-0041,3,DISPOSITION EVENT,FULVESTRANT,PROGRESSIVE DISEASE,PROGRESSIVE DISEASE,INDUCTION,2021-08-19,170
NCT01797120,DS,NCT01797120-0041,4,DISPOSITION EVENT,PLACEBO,PROGRESSIVE DISEASE,PROGRESSIVE DISEASE,INDUCTION,2021-08-19,170
NCT01797120,DS,NCT01797120-0041,5,DISPOSITION EVENT,STUDY PARTICIPATION,DEATH,DEATH,FOLLOW-UP,2022-02-06,341
NCT01797120,DS,NCT01797120-0042,1,PROTOCOL MILESTONE,,INFORMED CONSENT OBTAINED,INFORMED CONSENT OBTAINED,,2021-11-28,-10
NCT01797120,DS,NCT01797120-0042,2,PROTOCOL MILESTONE,,RANDOMIZED,RANDOMIZED,,2021-12-08,1
NCT01797120,DS,NCT01797120-0042,3,DISPOSITION EVENT,FULVESTRANT,PROGRESSIVE DISEASE,PROGRESSIVE DISEASE,INDUCTION,2022-03-03,86
NCT01797120,DS,NCT01797120-0042,4,DISPOSITION EVENT,EVEROLIMUS,PROGRESSIVE DISEASE,PROGRESSIVE DISEASE,INDUCTION,2022-03-03,86
NCT01797120,DS,NCT01797120-0042,5,DISPOSITION EVENT,STUDY PARTICIPATION,DEATH,DEATH,FOLLOW-UP,2022-05-03,147
NCT01797120,DS,NCT01797120-0043,1,PROTOCOL MILESTONE,,INFORMED CONSENT OBTAINED,INFORMED CONSENT OBTAINED,,2021-01-26,-19
NCT01797120,DS,NCT01797120-0043,2,PROTOCOL MILESTONE,,RANDOMIZED,RANDOMIZED,,2021-02-14,1
NCT01797120,DS,NCT01797120-0043,3,DISPOSITION EVENT,FULVESTRANT,PROGRESSIVE DISEASE,PROGRESSIVE DISEASE,CONTINUATION,2023-03-13,758
NCT01797120,DS,NCT01797120-0043,4,DISPOSITION EVENT,EVEROLIMUS,PROGRESSIVE DISEASE,PROGRESSIVE DISEASE,CONTINUATION,2023-03-13,758
NCT01797120,DS,NCT01797120-0043,5,DISPOSITION EVENT,STUDY PARTICIPATION,DEATH,DEATH,FOLLOW-UP,2024-10-03,1328
NCT01797120,DS,NCT01797120-0044,1,PROTOCOL MILESTONE,,INFORMED CONSENT OBTAINED,INFORMED CONSENT OBTAINED,,2021-03-19,-11
NCT01797120,DS,NCT01797120-0044,2,PROTOCOL MILESTONE,,RANDOMIZED,RANDOMIZED,,2021-03-30,1
NCT01797120,DS,NCT01797120-0044,3,DISPOSITION EVENT,FULVESTRANT,PROGRESSIVE DISEASE,PROGRESSIVE DISEASE,INDUCTION,2021-06-23,86
NCT01797120,DS,NCT01797120-0044,4,DISPOSITION EVENT,PLACEBO,PROGRESSIVE DISEASE,PROGRESSIVE DISEASE,INDUCTION,2021-06-23,86
NCT01797120,DS,NCT01797120-0044,5,DISPOSITION EVENT,STUDY PARTICIPATION,DEATH,DEATH,FOLLOW-UP,2021-08-10,134
NCT01797120,DS,NCT01797120-0045,1,PROTOCOL MILESTONE,,INFORMED CONSENT OBTAINED,INFORMED CONSENT OBTAINED,,2021-01-26,-8
NCT01797120,DS,NCT01797120-0045,2,PROTOCOL MILESTONE,,RANDOMIZED,RANDOMIZED,,2021-02-03,1
NCT01797120,DS,NCT01797120-0045,3,DISPOSITION EVENT,FULVESTRANT,PROGRESSIVE DISEASE,PROGRESSIVE DISEASE,INDUCTION,2021-04-29,86
NCT01797120,DS,NCT01797120-0045,4,DISPOSITION EVENT,PLACEBO,PROGRESSIVE DISEASE,PROGRESSIVE DISEASE,INDUCTION,2021-04-29,86
NCT01797120,DS,NCT01797120-0045,5,DISPOSITION EVENT,STUDY PARTICIPATION,DEATH,DEATH,FOLLOW-UP,2022-03-05,396
NCT01797120,DS,NCT01797120-0046,1,PROTOCOL MILESTONE,,INFORMED CONSENT OBTAINED,INFORMED CONSENT OBTAINED,,2022-09-14,-24
NCT01797120,DS,NCT01797120-0046,2,PROTOCOL MILESTONE,,RANDOMIZED,RANDOMIZED,,2022-10-08,1
NCT01797120,DS,NCT01797120-0046,3,DISPOSITION EVENT,FULVESTRANT,PROGRESSIVE DISEASE,PROGRESSIVE DISEASE,INDUCTION,2023-01-01,86
NCT01797120,DS,NCT01797120-0046,4,DISPOSITION EVENT,EVEROLIMUS,PROGRESSIVE DISEASE,PROGRESSIVE DISEASE,INDUCTION,2023-01-01,86
NCT01797120,DS,NCT01797120-0046,5,DISPOSITION EVENT,STUDY PARTICIPATION,LOST TO FOLLOW-UP,LOST TO FOLLOW-UP,FOLLOW-UP,2023-02-23,139
NCT01797120,DS,NCT01797120-0047,1,PROTOCOL MILESTONE,,INFORMED CONSENT OBTAINED,INFORMED CONSENT OBTAINED,,2021-08-14,-7
NCT01797120,DS,NCT01797120-0047,2,PROTOCOL MILESTONE,,RANDOMIZED,RANDOMIZED,,2021-08-21,1
NCT01797120,DS,NCT01797120-0047,3,DISPOSITION EVENT,FULVESTRANT,WITHDRAWAL BY SUBJECT,WITHDRAWAL BY SUBJECT,CONTINUATION,2023-04-01,589
NCT01797120,DS,NCT01797120-0047,4,DISPOSITION EVENT,EVEROLIMUS,WITHDRAWAL BY SUBJECT,WITHDRAWAL BY SUBJECT,CONTINUATION,2023-04-01,589
NCT01797120,DS,NCT01797120-0047,5,DISPOSITION EVENT,STUDY PARTICIPATION,WITHDRAWAL BY SUBJECT,WITHDRAWAL BY SUBJECT,FOLLOW-UP,2023-04-01,589
NCT01797120,DS,NCT01797120-0048,1,PROTOCOL MILESTONE,,INFORMED CONSENT OBTAINED,INFORMED CONSENT OBTAINED,,2021-01-23,-14
NCT01797120,DS,NCT01797120-0048,2,PROTOCOL MILESTONE,,RANDOMIZED,RANDOMIZED,,2021-02-06,1
NCT01797120,DS,NCT01797120-0048,3,DISPOSITION EVENT,FULVESTRANT,PROGRESSIVE DISEASE,PROGRESSIVE DISEASE,INDUCTION,2021-07-25,170
NCT01797120,DS,NCT01797120-0048,4,DISPOSITION EVENT,EVEROLIMUS,PROGRESSIVE DISEASE,PROGRESSIVE DISEASE,INDUCTION,2021-07-25,170
NCT01797120,DS,NCT01797120-0048,5,DISPOSITION EVENT,STUDY PARTICIPATION,DEATH,DEATH,FOLLOW-UP,2021-10-04,241
NCT01797120,DS,NCT01797120-0049,1,PROTOCOL MILESTONE,,INFORMED CONSENT OBTAINED,INFORMED CONSENT OBTAINED,,2022-03-25,-11
NCT01797120,DS,NCT01797120-0049,2,PROTOCOL MILESTONE,,RANDOMIZED,RANDOMIZED,,2022-04-05,1
NCT01797120,DS,NCT01797120-0049,3,DISPOSITION EVENT,FULVESTRANT,PROGRESSIVE DISEASE,PROGRESSIVE DISEASE,CONTINUATION,2023-11-15,590
NCT01797120,DS,NCT01797120-0049,4,DISPOSITION EVENT,PLACEBO,PROGRESSIVE DISEASE,PROGRESSIVE DISEASE,CONTINUATION,2023-11-15,590
NCT01797120,DS,NCT01797120-0049,5,DISPOSITION EVENT,STUDY PARTICIPATION,LOST TO FOLLOW-UP,LOST TO FOLLOW-UP,FOLLOW-UP,2024-03-30,726
NCT01797120,DS,NCT01797120-0050,1,PROTOCOL MILESTONE,,INFORMED CONSENT OBTAINED,INFORMED CONSENT OBTAINED,,2021-10-08,-10
NCT01797120,DS,NCT01797120-0050,2,PROTOCOL MILESTONE,,RANDOMIZED,RANDOMIZED,,2021-10-18,1
NCT01797120,DS,NCT01797120-0050,3,DISPOSITION EVENT,FULVESTRANT,PROGRESSIVE DISEASE,PROGRESSIVE DISEASE,INDUCTION,2022-06-28,254
NCT01797120,DS,NCT01797120-0050,4,DISPOSITION EVENT,PLACEBO,PROGRESSIVE DISEASE,PROGRESSIVE DISEASE,INDUCTION,2022-06-28,254
NCT01797120,DS,NCT01797120-0050,5,DISPOSITION EVENT,STUDY PARTICIPATION,LOST TO FOLLOW-UP,LOST TO FOLLOW-UP,FOLLOW-UP,2022-10-04,352
NCT01797120,DS,NCT01797120-0051,1,PROTOCOL MILESTONE,,INFORMED CONSENT OBTAINED,INFORMED CONSENT OBTAINED,,2021-07-05,-12
NCT01797120,DS,NCT01797120-0051,2,PROTOCOL MILESTONE,,RANDOMIZED,RANDOMIZED,,2021-07-17,1
NCT01797120,DS,NCT01797120-0051,3,DISPOSITION EVENT,FULVESTRANT,LOST TO FOLLOW-UP,LOST TO FOLLOW-UP,CONTINUATION,2023-02-28,592
NCT01797120,DS,NCT01797120-0051,4,DISPOSITION EVENT,EVEROLIMUS,LOST TO FOLLOW-UP,LOST TO FOLLOW-UP,CONTINUATION,2023-02-28,592
NCT01797120,DS,NCT01797120-0051,5,DISPOSITION EVENT,STUDY PARTICIPATION,LOST TO FOLLOW-UP,LOST TO FOLLOW-UP,FOLLOW-UP,2023-04-28,651
NCT01797120,DS,NCT01797120-0052,1,PROTOCOL MILESTONE,,INFORMED CONSENT OBTAINED,INFORMED CONSENT OBTAINED,,2021-08-30,-13
NCT01797120,DS,NCT01797120-0052,2,PROTOCOL MILESTONE,,RANDOMIZED,RANDOMIZED,,2021-09-12,1
NCT01797120,DS,NCT01797120-0052,3,DISPOSITION EVENT,FULVESTRANT,PROGRESSIVE DISEASE,PROGRESSIVE DISEASE,INDUCTION,2021-12-06,86
NCT01797120,DS,NCT01797120-0052,4,DISPOSITION EVENT,PLACEBO,PROGRESSIVE DISEASE,PROGRESSIVE DISEASE,INDUCTION,2021-12-06,86
NCT01797120,DS,NCT01797120-0052,5,DISPOSITION EVENT,STUDY PARTICIPATION,DEATH,DEATH,FOLLOW-UP,2022-05-31,262
NCT01797120,DS,NCT01797120-0053,1,PROTOCOL MILESTONE,,INFORMED CONSENT OBTAINED,INFORMED CONSENT OBTAINED,,2021-03-12,-10
NCT01797120,DS,NCT01797120-0053,2,PROTOCOL MILESTONE,,RANDOMIZED,RANDOMIZED,,2021-03-22,1
NCT01797120,DS,NCT01797120-0053,3,DISPOSITION EVENT,FULVESTRANT,PROGRESSIVE DISEASE,PROGRESSIVE DISEASE,INDUCTION,2021-06-15,86
NCT01797120,DS,NCT01797120-0053,4,DISPOSITION EVENT,PLACEBO,PROGRESSIVE DISEASE,PROGRESSIVE DISEASE,INDUCTION,2021-06-15,86
NCT01797120,DS,NCT01797120-0053,5,DISPOSITION EVENT,STUDY PARTICIPATION,DEATH,DEATH,FOLLOW-UP,2022-10-07,565
NCT01797120,DS,NCT01797120-0054,1,PROTOCOL MILESTONE,,INFORMED CONSENT OBTAINED,INFORMED CONSENT OBTAINED,,2022-03-14,-9
NCT01797120,DS,NCT01797120-0054,2,PROTOCOL MILESTONE,,RANDOMIZED,RANDOMIZED,,2022-03-23,1
NCT01797120,DS,NCT01797120-0054,3,DISPOSITION EVENT,FULVESTRANT,PROGRESSIVE DISEASE,PROGRESSIVE DISEASE,CONTINUATION,2025-03-20,1094
NCT01797120,DS,NCT01797120-0054,4,DISPOSITION EVENT,EVEROLIMUS,PROGRESSIVE DISEASE,PROGRESSIVE DISEASE,CONTINUATION,2025-03-20,1094
NCT01797120,DS,NCT01797120-0054,5,DISPOSITION EVENT,STUDY PARTICIPATION,DEATH,DEATH,FOLLOW-UP,2025-11-15,1334
NCT01797120,DS,NCT01797120-0055,1,PROTOCOL MILESTONE,,INFORMED CONSENT OBTAINED,INFORMED CONSENT OBTAINED,,2021-05-02,-15
NCT01797120,DS,NCT01797120-0055,2,PROTOCOL MILESTONE,,RANDOMIZED,RANDOMIZED,,2021-05-17,1
NCT01797120,DS,NCT01797120-0055,3,DISPOSITION EVENT,FULVESTRANT,PROGRESSIVE DISEASE,PROGRESSIVE DISEASE,INDUCTION,2021-08-10,86
NCT01797120,DS,NCT01797120-0055,4,DISPOSITION EVENT,PLACEBO,PROGRESSIVE DISEASE,PROGRESSIVE DISEASE,INDUCTION,2021-08-10,86
NCT01797120,DS,NCT01797120-0055,5,DISPOSITION EVENT,STUDY PARTICIPATION,DEATH,DEATH,FOLLOW-UP,2021-11-28,196
NCT01797120,DS,NCT01797120-0056,1,PROTOCOL MILESTONE,,INFORMED CONSENT OBTAINED,INFORMED CONSENT OBTAINED,,2021-07-01,-8
NCT01797120,DS,NCT01797120-0056,2,PROTOCOL MILESTONE,,RANDOMIZED,RANDOMIZED,,2021-07-09,1
NCT01797120,DS,NCT01797120-0056,3,DISPOSITION EVENT,FULVESTRANT,PROGRESSIVE DISEASE,PROGRESSIVE DISEASE,INDUCTION,2021-10-02,86
NCT01797120,DS,NCT01797120-0056,4,DISPOSITION EVENT,EVEROLIMUS,PROGRESSIVE DISEASE,PROGRESSIVE DISEASE,INDUCTION,2021-10-02,86
NCT01797120,DS,NCT01797120-0056,5,DISPOSITION EVENT,STUDY PARTICIPATION,LOST TO FOLLOW-UP,LOST TO FOLLOW-UP,FOLLOW-UP,2022-01-31,207
NCT01797120,DS,NCT01797120-0057,1,PROTOCOL MILESTONE,,INFORMED CONSENT OBTAINED,INFORMED CONSENT OBTAINED,,2021-04-29,-11
NCT01797120,DS,NCT01797120-0057,2,PROTOCOL MILESTONE,,RANDOMIZED,RANDOMIZED,,2021-05-10,1
NCT01797120,DS,NCT01797120-0057,3,DISPOSITION EVENT,FULVESTRANT,PROGRESSIVE DISEASE,PROGRESSIVE DISEASE,CONTINUATION,2023-11-21,926
NCT01797120,DS,NCT01797120-0057,4,DISPOSITION EVENT,EVEROLIMUS,PROGRESSIVE DISEASE,PROGRESSIVE DISEASE,CONTINUATION,2023-11-21,926
NCT01797120,DS,NCT01797120-0057,5,DISPOSITION EVENT,STUDY PARTICIPATION,DEATH,DEATH,FOLLOW-UP,2024-02-26,1023
NCT01797120,DS,NCT01797120-0058,1,PROTOCOL MILESTONE,,INFORMED CONSENT OBTAINED,INFORMED CONSENT OBTAINED,,2021-07-22,-7
NCT01797120,DS,NCT01797120-0058,2,PROTOCOL MILESTONE,,RANDOMIZED,RANDOMIZED,,2021-07-29,1
NCT01797120,DS,NCT01797120-0058,3,DISPOSITION EVENT,FULVESTRANT,PROGRESSIVE DISEASE,PROGRESSIVE DISEASE,CONTINUATION,2022-09-23,422
NCT01797120,DS,NCT01797120-0058,4,DISPOSITION EVENT,PLACEBO,PROGRESSIVE DISEASE,PROGRESSIVE DISEASE,CONTINUATION,2022-09-23,422
NCT01797120,DS,NCT01797120-0058,5,DISPOSITION EVENT,STUDY PARTICIPATION,LOST TO FOLLOW-UP,LOST TO FOLLOW-UP,FOLLOW-UP,2023-02-15,567
NCT01797120,DS,NCT01797120-0059,1,PROTOCOL MILESTONE,,INFORMED CONSENT OBTAINED,INFORMED CONSENT OBTAINED,,2021-12-15,-20
NCT01797120,DS,NCT01797120-0059,2,PROTOCOL MILESTONE,,RANDOMIZED,RANDOMIZED,,2022-01-04,1
NCT01797120,DS,NCT01797120-0059,3,DISPOSITION EVENT,FULVESTRANT,PROGRESSIVE DISEASE,PROGRESSIVE DISEASE,CONTINUATION,2024-04-24,842
NCT01797120,DS,NCT01797120-0059,4,DISPOSITION EVENT,EVEROLIMUS,PROGRESSIVE DISEASE,PROGRESSIVE DISEASE,CONTINUATION,2024-04-24,842
NCT01797120,DS,NCT01797120-0059,5,DISPOSITION EVENT,STUDY PARTICIPATION,LOST TO FOLLOW-UP,LOST TO FOLLOW-UP,FOLLOW-UP,2024-10-09,1010
NCT01797120,DS,NCT01797120-0060,1,PROTOCOL MILESTONE,,INFORMED CONSENT OBTAINED,INFORMED CONSENT OBTAINED,,2021-09-23,-26
NCT01797120,DS,NCT01797120-0060,2,PROTOCOL MILESTONE,,RANDOMIZED,RANDOMIZED,,2021-10-19,1
NCT01797120,DS,NCT01797120-0060,3,DISPOSITION EVENT,FULVESTRANT,PROGRESSIVE DISEASE,PROGRESSIVE DISEASE,INDUCTION,2022-04-06,170
NCT01797120,DS,NCT01797120-0060,4,DISPOSITION EVENT,EVEROLIMUS,PROGRESSIVE DISEASE,PROGRESSIVE DISEASE,INDUCTION,2022-04-06,170
NCT01797120,DS,NCT01797120-0060,5,DISPOSITION EVENT,STUDY PARTICIPATION,DEATH,DEATH,FOLLOW-UP,2023-03-11,509
NCT01797120,DS,NCT01797120-0061,1,PROTOCOL MILESTONE,,INFORMED CONSENT OBTAINED,INFORMED CONSENT OBTAINED,,2021-12-27,-16
NCT01797120,DS,NCT01797120-0061,2,PROTOCOL MILESTONE,,RANDOMIZED,RANDOMIZED,,2022-01-12,1
NCT01797120,DS,NCT01797120-0061,3,DISPOSITION EVENT,FULVESTRANT,PROGRESSIVE DISEASE,PROGRESSIVE DISEASE,INDUCTION,2022-06-30,170
NCT01797120,DS,NCT01797120-0061,4,DISPOSITION EVENT,PLACEBO,PROGRESSIVE DISEASE,PROGRESSIVE DISEASE,INDUCTION,2022-06-30,170
NCT01797120,DS,NCT01797120-0061,5,DISPOSITION EVENT,STUDY PARTICIPATION,DEATH,DEATH,FOLLOW-UP,2022-09-29,261
NCT01797120,DS,NCT01797120-0062,1,PROTOCOL MILESTONE,,INFORMED CONSENT OBTAINED,INFORMED CONSENT OBTAINED,,2021-11-16,-28
NCT01797120,DS,NCT01797120-0062,2,PROTOCOL MILESTONE,,RANDOMIZED,RANDOMIZED,,2021-12-14,1
NCT01797120,DS,NCT01797120-0062,3,DISPOSITION EVENT,FULVESTRANT,PROGRESSIVE DISEASE,PROGRESSIVE DISEASE,INDUCTION,2022-03-09,86
NCT01797120,DS,NCT01797120-0062,4,DISPOSITION EVENT,EVEROLIMUS,PROGRESSIVE DISEASE,PROGRESSIVE DISEASE,INDUCTION,2022-03-09,86
NCT01797120,DS,NCT01797120-0062,5,DISPOSITION EVENT,STUDY PARTICIPATION,LOST TO FOLLOW-UP,LOST TO FOLLOW-UP,FOLLOW-UP,2022-07-30,229
NCT01797120,DS,NCT01797120-0063,1,PROTOCOL MILESTONE,,INFORMED CONSENT OBTAINED,INFORMED CONSENT OBTAINED,,2021-06-06,-12
NCT01797120,DS,NCT01797120-0063,2,PROTOCOL MILESTONE,,RANDOMIZED,RANDOMIZED,,2021-06-18,1
NCT01797120,DS,NCT01797120-0063,3,DISPOSITION EVENT,FULVESTRANT,PROGRESSIVE DISEASE,PROGRESSIVE DISEASE,INDUCTION,2021-09-11,86
NCT01797120,DS,NCT01797120-0063,4,DISPOSITION EVENT,PLACEBO,PROGRESSIVE DISEASE,PROGRESSIVE DISEASE,INDUCTION,2021-09-11,86
NCT01797120,DS,NCT01797120-0063,5,DISPOSITION EVENT,STUDY PARTICIPATION,DEATH,DEATH,FOLLOW-UP,2022-01-10,207
NCT01797120,DS,NCT01797120-0064,1,PROTOCOL MILESTONE,,INFORMED CONSENT OBTAINED,INFORMED CONSENT OBTAINED,,2021-06-18,-8
NCT01797120,DS,NCT01797120-0064,2,PROTOCOL MILESTONE,,RANDOMIZED,RANDOMIZED,,2021-06-26,1
NCT01797120,DS,NCT01797120-0064,3,DISPOSITION EVENT,FULVESTRANT,PROGRESSIVE DISEASE,PROGRESSIVE DISEASE,INDUCTION,2021-09-19,86
NCT01797120,DS,NCT01797120-0064,4,DISPOSITION EVENT,EVEROLIMUS,PROGRESSIVE DISEASE,PROGRESSIVE DISEASE,INDUCTION,2021-09-19,86
NCT01797120,DS,NCT01797120-0064,5,DISPOSITION EVENT,STUDY PARTICIPATION,DEATH,DEATH,FOLLOW-UP,2021-11-04,132
NCT01797120,DS,NCT01797120-0065,1,PROTOCOL MILESTONE,,INFORMED CONSENT OBTAINED,INFORMED CONSENT OBTAINED,,2022-06-08,-14
NCT01797120,DS,NCT01797120-0065,2,PROTOCOL MILESTONE,,RANDOMIZED,RANDOMIZED,,2022-06-22,1
NCT01797120,DS,NCT01797120-0065,3,DISPOSITION EVENT,FULVESTRANT,LOST TO FOLLOW-UP,LOST TO FOLLOW-UP,CONTINUATION,2023-06-27,371
NCT01797120,DS,NCT01797120-0065,4,DISPOSITION EVENT,PLACEBO,LOST TO FOLLOW-UP,LOST TO FOLLOW-UP,CONTINUATION,2023-06-27,371
NCT01797120,DS,NCT01797120-0065,5,DISPOSITION EVENT,STUDY PARTICIPATION,LOST TO FOLLOW-UP,LOST TO FOLLOW-UP,FOLLOW-UP,2023-09-07,443
NCT01797120,DS,NCT01797120-0066,1,PROTOCOL MILESTONE,,INFORMED CONSENT OBTAINED,INFORMED CONSENT OBTAINED,,2021-11-05,-15
NCT01797120,DS,NCT01797120-0066,2,PROTOCOL MILESTONE,,RANDOMIZED,RANDOMIZED,,2021-11-20,1
NCT01797120,DS,NCT01797120-0066,3,DISPOSITION EVENT,FULVESTRANT,PROGRESSIVE DISEASE,PROGRESSIVE DISEASE,INDUCTION,2022-05-08,170
NCT01797120,DS,NCT01797120-0066,4,DISPOSITION EVENT,EVEROLIMUS,PROGRESSIVE DISEASE,PROGRESSIVE DISEASE,INDUCTION,2022-05-08,170
NCT01797120,DS,NCT01797120-0066,5,DISPOSITION EVENT,STUDY PARTICIPATION,DEATH,DEATH,FOLLOW-UP,2024-04-28,891
NCT01797120,DS,NCT01797120-0067,1,PROTOCOL MILESTONE,,INFORMED CONSENT OBTAINED,INFORMED CONSENT OBTAINED,,2022-04-27,-27
NCT01797120,DS,NCT01797120-0067,2,PROTOCOL MILESTONE,,RANDOMIZED,RANDOMIZED,,2022-05-24,1
NCT01797120,DS,NCT01797120-0067,3,DISPOSITION EVENT,FULVESTRANT,PROGRESSIVE DISEASE,PROGRESSIVE DISEASE,CONTINUATION,2024-06-19,758
NCT01797120,DS,NCT01797120-0067,4,DISPOSITION EVENT,EVEROLIMUS,PROGRESSIVE DISEASE,PROGRESSIVE DISEASE,CONTINUATION,2024-06-19,758
NCT01797120,DS,NCT01797120-0067,5,DISPOSITION EVENT,STUDY PARTICIPATION,DEATH,DEATH,FOLLOW-UP,2024-10-23,884
NCT01797120,DS,NCT01797120-0068,1,PROTOCOL MILESTONE,,INFORMED CONSENT OBTAINED,INFORMED CONSENT OBTAINED,,2021-04-11,-14
NCT01797120,DS,NCT01797120-0068,2,PROTOCOL MILESTONE,,RANDOMIZED,RANDOMIZED,,2021-04-25,1
NCT01797120,DS,NCT01797120-0068,3,DISPOSITION EVENT,FULVESTRANT,PROGRESSIVE DISEASE,PROGRESSIVE DISEASE,INDUCTION,2022-01-03,254
NCT01797120,DS,NCT01797120-0068,4,DISPOSITION EVENT,PLACEBO,PROGRESSIVE DISEASE,PROGRESSIVE DISEASE,INDUCTION,2022-01-03,254
NCT01797120,DS,NCT01797120-0068,5,DISPOSITION EVENT,STUDY PARTICIPATION,DEATH,DEATH,FOLLOW-UP,2022-03-01,311
NCT01797120,DS,NCT01797120-0069,1,PROTOCOL MILESTONE,,INFORMED CONSENT OBTAINED,INFORMED CONSENT OBTAINED,,2021-01-20,-10
NCT01797120,DS,NCT01797120-0069,2,PROTOCOL MILESTONE,,RANDOMIZED,RANDOMIZED,,2021-01-30,1
NCT01797120,DS,NCT01797120-0069,3,DISPOSITION EVENT,FULVESTRANT,PROGRESSIVE DISEASE,PROGRESSIVE DISEASE,CONTINUATION,2022-06-19,506
NCT01797120,DS,NCT01797120-0069,4,DISPOSITION EVENT,EVEROLIMUS,PROGRESSIVE DISEASE,PROGRESSIVE DISEASE,CONTINUATION,2022-06-19,506
NCT01797120,DS,NCT01797120-0069,5,DISPOSITION EVENT,STUDY PARTICIPATION,DEATH,DEATH,FOLLOW-UP,2022-12-03,673
NCT01797120,DS,NCT01797120-0070,1,PROTOCOL MILESTONE,,INFORMED CONSENT OBTAINED,INFORMED CONSENT OBTAINED,,2021-09-19,-28
NCT01797120,DS,NCT01797120-0070,2,PROTOCOL MILESTONE,,RANDOMIZED,RANDOMIZED,,2021-10-17,1
NCT01797120,DS,NCT01797120-0070,3,DISPOSITION EVENT,FULVESTRANT,PROGRESSIVE DISEASE,PROGRESSIVE DISEASE,CONTINUATION,2022-09-19,338
NCT01797120,DS,NCT01797120-0070,4,DISPOSITION EVENT,EVEROLIMUS,PROGRESSIVE DISEASE,PROGRESSIVE DISEASE,CONTINUATION,2022-09-19,338
NCT01797120,DS,NCT01797120-0070,5,DISPOSITION EVENT,STUDY PARTICIPATION,WITHDRAWAL BY SUBJECT,WITHDRAWAL BY SUBJECT,FOLLOW-UP,2023-01-11,452
NCT01797120,DS,NCT01797120-0071,1,PROTOCOL MILESTONE,,INFORMED CONSENT OBTAINED,INFORMED CONSENT OBTAINED,,2021-05-08,-19
NCT01797120,DS,NCT01797120-0071,2,PROTOCOL MILESTONE,,RANDOMIZED,RANDOMIZED,,2021-05-27,1
NCT01797120,DS,NCT01797120-0071,3,DISPOSITION EVENT,FULVESTRANT,PROGRESSIVE DISEASE,PROGRESSIVE DISEASE,INDUCTION,2021-08-20,86
NCT01797120,DS,NCT01797120-0071,4,DISPOSITION EVENT,PLACEBO,PROGRESSIVE DISEASE,PROGRESSIVE DISEASE,INDUCTION,2021-08-20,86
NCT01797120,DS,NCT01797120-0071,5,DISPOSITION EVENT,STUDY PARTICIPATION,DEATH,DEATH,FOLLOW-UP,2021-10-18,145
NCT01797120,DS,NCT01797120-0072,1,PROTOCOL MILESTONE,,INFORMED CONSENT OBTAINED,INFORMED CONSENT OBTAINED,,2021-09-21,-10
NCT01797120,DS,NCT01797120-0072,2,PROTOCOL MILESTONE,,RANDOMIZED,RANDOMIZED,,2021-10-01,1
NCT01797120,DS,NCT01797120-0072,3,DISPOSITION EVENT,FULVESTRANT,PROGRESSIVE DISEASE,PROGRESSIVE DISEASE,INDUCTION,2022-06-11,254
NCT01797120,DS,NCT01797120-0072,4,DISPOSITION EVENT,EVEROLIMUS,PROGRESSIVE DISEASE,PROGRESSIVE DISEASE,INDUCTION,2022-06-11,254
NCT01797120,DS,NCT01797120-0072,5,DISPOSITION EVENT,STUDY PARTICIPATION,DEATH,DEATH,FOLLOW-UP,2022-10-13,378
NCT01797120,DS,NCT01797120-0073,1,PROTOCOL MILESTONE,,INFORMED CONSENT OBTAINED,INFORMED CONSENT OBTAINED,,2021-07-28,-13
NCT01797120,DS,NCT01797120-0073,2,PROTOCOL MILESTONE,,RANDOMIZED,RANDOMIZED,,2021-08-10,1
NCT01797120,DS,NCT01797120-0073,3,DISPOSITION EVENT,FULVESTRANT,PROGRESSIVE DISEASE,PROGRESSIVE DISEASE,INDUCTION,2022-01-26,170
NCT01797120,DS,NCT01797120-0073,4,DISPOSITION EVENT,PLACEBO,PROGRESSIVE DISEASE,PROGRESSIVE DISEASE,INDUCTION,2022-01-26,170
NCT01797120,DS,NCT01797120-0073,5,DISPOSITION EVENT,STUDY PARTICIPATION,DEATH,DEATH,FOLLOW-UP,2022-06-17,312
NCT01797120,DS,NCT01797120-0074,1,PROTOCOL MILESTONE,,INFORMED CONSENT OBTAINED,INFORMED CONSENT OBTAINED,,2021-11-10,-27
NCT01797120,DS,NCT01797120-0074,2,PROTOCOL MILESTONE,,RANDOMIZED,RANDOMIZED,,2021-12-07,1
NCT01797120,DS,NCT01797120-0074,3,DISPOSITION EVENT,FULVESTRANT,PROGRESSIVE DISEASE,PROGRESSIVE DISEASE,INDUCTION,2022-05-25,170
NCT01797120,DS,NCT01797120-0074,4,DISPOSITION EVENT,PLACEBO,PROGRESSIVE DISEASE,PROGRESSIVE DISEASE,INDUCTION,2022-05-25,170
NCT01797120,DS,NCT01797120-0074,5,DISPOSITION EVENT,STUDY PARTICIPATION,DEATH,DEATH,FOLLOW-UP,2022-06-22,198
NCT01797120,DS,NCT01797120-0075,1,PROTOCOL MILESTONE,,INFORMED CONSENT OBTAINED,INFORMED CONSENT OBTAINED,,2022-05-11,-14
NCT01797120,DS,NCT01797120-0075,2,PROTOCOL MILESTONE,,RANDOMIZED,RANDOMIZED,,2022-05-25,1
NCT01797120,DS,NCT01797120-0075,3,DISPOSITION EVENT,FULVESTRANT,PROGRESSIVE DISEASE,PROGRESSIVE DISEASE,INDUCTION,2022-11-10,170
NCT01797120,DS,NCT01797120-0075,4,DISPOSITION EVENT,PLACEBO,PROGRESSIVE DISEASE,PROGRESSIVE DISEASE,INDUCTION,2022-11-10,170
NCT01797120,DS,NCT01797120-0075,5,DISPOSITION EVENT,STUDY PARTICIPATION,DEATH,DEATH,FOLLOW-UP,2023-08-12,445
NCT01797120,DS,NCT01797120-0076,1,PROTOCOL MILESTONE,,INFORMED CONSENT OBTAINED,INFORMED CONSENT OBTAINED,,2022-05-04,-26
NCT01797120,DS,NCT01797120-0076,2,PROTOCOL MILESTONE,,RANDOMIZED,RANDOMIZED,,2022-05-30,1
NCT01797120,DS,NCT01797120-0076,3,DISPOSITION EVENT,FULVESTRANT,PROGRESSIVE DISEASE,PROGRESSIVE DISEASE,CONTINUATION,2023-07-25,422
NCT01797120,DS,NCT01797120-0076,4,DISPOSITION EVENT,EVEROLIMUS,PROGRESSIVE DISEASE,PROGRESSIVE DISEASE,CONTINUATION,2023-07-25,422
NCT01797120,DS,NCT01797120-0076,5,DISPOSITION EVENT,STUDY PARTICIPATION,DEATH,DEATH,FOLLOW-UP,2023-08-30,458
NCT01797120,DS,NCT01797120-0077,1,PROTOCOL MILESTONE,,INFORMED CONSENT OBTAINED,INFORMED CONSENT OBTAINED,,2021-03-04,-7
NCT01797120,DS,NCT01797120-0077,2,PROTOCOL MILESTONE,,RANDOMIZED,RANDOMIZED,,2021-03-11,1
NCT01797120,DS,NCT01797120-0077,3,DISPOSITION EVENT,FULVESTRANT,LOST TO FOLLOW-UP,LOST TO FOLLOW-UP,INDUCTION,2021-09-16,190
NCT01797120,DS,NCT01797120-0077,4,DISPOSITION EVENT,PLACEBO,LOST TO FOLLOW-UP,LOST TO FOLLOW-UP,INDUCTION,2021-09-16,190
NCT01797120,DS,NCT01797120-0077,5,DISPOSITION EVENT,STUDY PARTICIPATION,LOST TO FOLLOW-UP,LOST TO FOLLOW-UP,FOLLOW-UP,2021-11-05,240
NCT01797120,DS,NCT01797120-0078,1,PROTOCOL MILESTONE,,INFORMED CONSENT OBTAINED,INFORMED CONSENT OBTAINED,,2021-12-12,-12
NCT01797120,DS,NCT01797120-0078,2,PROTOCOL MILESTONE,,RANDOMIZED,RANDOMIZED,,2021-12-24,1
NCT01797120,DS,NCT01797120-0078,3,DISPOSITION EVENT,FULVESTRANT,PROGRESSIVE DISEASE,PROGRESSIVE DISEASE,INDUCTION,2022-06-11,170
NCT01797120,DS,NCT01797120-0078,4,DISPOSITION EVENT,EVEROLIMUS,PROGRESSIVE DISEASE,PROGRESSIVE DISEASE,INDUCTION,2022-06-11,170
NCT01797120,DS,NCT01797120-0078,5,DISPOSITION EVENT,STUDY PARTICIPATION,LOST TO FOLLOW-UP,LOST TO FOLLOW-UP,FOLLOW-UP,2022-09-08,259
NCT01797120,DS,NCT01797120-0079,1,PROTOCOL MILESTONE,,INFORMED CONSENT OBTAINED,INFORMED CONSENT OBTAINED,,2022-06-23,-18
NCT01797120,DS,NCT01797120-0079,2,PROTOCOL MILESTONE,,RANDOMIZED,RANDOMIZED,,2022-07-11,1
NCT01797120,DS,NCT01797120-0079,3,DISPOSITION EVENT,FULVESTRANT,PROGRESSIVE DISEASE,PROGRESSIVE DISEASE,CONTINUATION,2025-09-30,1178
NCT01797120,DS,NCT01797120-0079,4,DISPOSITION EVENT,EVEROLIMUS,PROGRESSIVE DISEASE,PROGRESSIVE DISEASE,CONTINUATION,2025-09-30,1178
NCT01797120,DS,NCT01797120-0079,5,DISPOSITION EVENT,STUDY PARTICIPATION,LOST TO FOLLOW-UP,LOST TO FOLLOW-UP,FOLLOW-UP,2026-03-25,1354
NCT01797120,DS,NCT01797120-0080,1,PROTOCOL MILESTONE,,INFORMED CONSENT OBTAINED,INFORMED CONSENT OBTAINED,,2021-11-03,-16
NCT01797120,DS,NCT01797120-0080,2,PROTOCOL MILESTONE,,RANDOMIZED,RANDOMIZED,,2021-11-19,1
NCT01797120,DS,NCT01797120-0080,3,DISPOSITION EVENT,FULVESTRANT,PROGRESSIVE DISEASE,PROGRESSIVE DISEASE,INDUCTION,2022-02-12,86
NCT01797120,DS,NCT01797120-0080,4,DISPOSITION EVENT,PLACEBO,PROGRESSIVE DISEASE,PROGRESSIVE DISEASE,INDUCTION,2022-02-12,86
NCT01797120,DS,NCT01797120-0080,5,DISPOSITION EVENT,STUDY PARTICIPATION,DEATH,DEATH,FOLLOW-UP,2022-02-14,88
NCT01797120,DS,NCT01797120-0081,1,PROTOCOL MILESTONE,,INFORMED CONSENT OBTAINED,INFORMED CONSENT OBTAINED,,2022-08-21,-26
NCT01797120,DS,NCT01797120-0081,2,PROTOCOL MILESTONE,,RANDOMIZED,RANDOMIZED,,2022-09-16,1
NCT01797120,DS,NCT01797120-0081,3,DISPOSITION EVENT,FULVESTRANT,PROGRESSIVE DISEASE,PROGRESSIVE DISEASE,CONTINUATION,2024-04-27,590
NCT01797120,DS,NCT01797120-0081,4,DISPOSITION EVENT,PLACEBO,PROGRESSIVE DISEASE,PROGRESSIVE DISEASE,CONTINUATION,2024-04-27,590
NCT01797120,DS,NCT01797120-0081,5,DISPOSITION EVENT,STUDY PARTICIPATION,DEATH,DEATH,FOLLOW-UP,2024-08-24,709
NCT01797120,DS,NCT01797120-0082,1,PROTOCOL MILESTONE,,INFORMED CONSENT OBTAINED,INFORMED CONSENT OBTAINED,,2021-03-19,-14
NCT01797120,DS,NCT01797120-0082,2,PROTOCOL MILESTONE,,RANDOMIZED,RANDOMIZED,,2021-04-02,1
NCT01797120,DS,NCT01797120-0082,3,DISPOSITION EVENT,FULVESTRANT,PROGRESSIVE DISEASE,PROGRESSIVE DISEASE,CONTINUATION,2022-08-20,506
NCT01797120,DS,NCT01797120-0082,4,DISPOSITION EVENT,EVEROLIMUS,PROGRESSIVE DISEASE,PROGRESSIVE DISEASE,CONTINUATION,2022-08-20,506
NCT01797120,DS,NCT01797120-0082,5,DISPOSITION EVENT,STUDY PARTICIPATION,LOST TO FOLLOW-UP,LOST TO FOLLOW-UP,FOLLOW-UP,2022-10-14,561
NCT01797120,DS,NCT01797120-0083,1,PROTOCOL MILESTONE,,INFORMED CONSENT OBTAINED,INFORMED CONSENT OBTAINED,,2021-11-10,-28
NCT01797120,DS,NCT01797120-0083,2,PROTOCOL MILESTONE,,RANDOMIZED,RANDOMIZED,,2021-12-08,1
NCT01797120,DS,NCT01797120-0083,3,DISPOSITION EVENT,FULVESTRANT,PROGRESSIVE DISEASE,PROGRESSIVE DISEASE,CONTINUATION,2023-07-20,590
NCT01797120,DS,NCT01797120-0083,4,DISPOSITION EVENT,PLACEBO,PROGRESSIVE DISEASE,PROGRESSIVE DISEASE,CONTINUATION,2023-07-20,590
NCT01797120,DS,NCT01797120-0083,5,DISPOSITION EVENT,STUDY PARTICIPATION,DEATH,DEATH,FOLLOW-UP,2023-11-11,704
NCT01797120,DS,NCT01797120-0084,1,PROTOCOL MILESTONE,,INFORMED CONSENT OBTAINED,INFORMED CONSENT OBTAINED,,2022-02-16,-12
NCT01797120,DS,NCT01797120-0084,2,PROTOCOL MILESTONE,,RANDOMIZED,RANDOMIZED,,2022-02-28,1
NCT01797120,DS,NCT01797120-0084,3,DISPOSITION EVENT,FULVESTRANT,PROGRESSIVE DISEASE,PROGRESSIVE DISEASE,CONTINUATION,2023-01-31,338
NCT01797120,DS,NCT01797120-0084,4,DISPOSITION EVENT,PLACEBO,PROGRESSIVE DISEASE,PROGRESSIVE DISEASE,CONTINUATION,2023-01-31,338
NCT01797120,DS,NCT01797120-0084,5,DISPOSITION EVENT,STUDY PARTICIPATION,DEATH,DEATH,FOLLOW-UP,2023-04-21,418
NCT01797120,DS,NCT01797120-0085,1,PROTOCOL MILESTONE,,INFORMED CONSENT OBTAINED,INFORMED CONSENT OBTAINED,,2022-06-21,-15
NCT01797120,DS,NCT01797120-0085,2,PROTOCOL MILESTONE,,RANDOMIZED,RANDOMIZED,,2022-07-06,1
NCT01797120,DS,NCT01797120-0085,3,DISPOSITION EVENT,FULVESTRANT,PROGRESSIVE DISEASE,PROGRESSIVE DISEASE,INDUCTION,2022-09-29,86
NCT01797120,DS,NCT01797120-0085,4,DISPOSITION EVENT,PLACEBO,PROGRESSIVE DISEASE,PROGRESSIVE DISEASE,INDUCTION,2022-09-29,86
NCT01797120,DS,NCT01797120-0085,5,DISPOSITION EVENT,STUDY PARTICIPATION,DEATH,DEATH,FOLLOW-UP,2023-07-17,377
NCT01797120,DS,NCT01797120-0086,1,PROTOCOL MILESTONE,,INFORMED CONSENT OBTAINED,INFORMED CONSENT OBTAINED,,2022-10-07,-18
NCT01797120,DS,NCT01797120-0086,2,PROTOCOL MILESTONE,,RANDOMIZED,RANDOMIZED,,2022-10-25,1
NCT01797120,DS,NCT01797120-0086,3,DISPOSITION EVENT,FULVESTRANT,PROGRESSIVE DISEASE,PROGRESSIVE DISEASE,CONTINUATION,2024-08-28,674
NCT01797120,DS,NCT01797120-0086,4,DISPOSITION EVENT,EVEROLIMUS,PROGRESSIVE DISEASE,PROGRESSIVE DISEASE,CONTINUATION,2024-08-28,674
NCT01797120,DS,NCT01797120-0086,5,DISPOSITION EVENT,STUDY PARTICIPATION,DEATH,DEATH,FOLLOW-UP,2025-02-07,837
NCT01797120,DS,NCT01797120-0087,1,PROTOCOL MILESTONE,,INFORMED CONSENT OBTAINED,INFORMED CONSENT OBTAINED,,2022-01-29,-21
NCT01797120,DS,NCT01797120-0087,2,PROTOCOL MILESTONE,,RANDOMIZED,RANDOMIZED,,2022-02-19,1
NCT01797120,DS,NCT01797120-0087,3,DISPOSITION EVENT,FULVESTRANT,PROGRESSIVE DISEASE,PROGRESSIVE DISEASE,INDUCTION,2022-05-15,86
NCT01797120,DS,NCT01797120-0087,4,DISPOSITION EVENT,EVEROLIMUS,PROGRESSIVE DISEASE,PROGRESSIVE DISEASE,INDUCTION,2022-05-15,86
NCT01797120,DS,NCT01797120-0087,5,DISPOSITION EVENT,STUDY PARTICIPATION,DEATH,DEATH,FOLLOW-UP,2022-05-20,91
NCT01797120,DS,NCT01797120-0088,1,PROTOCOL MILESTONE,,INFORMED CONSENT OBTAINED,INFORMED CONSENT OBTAINED,,2022-10-13,-7
NCT01797120,DS,NCT01797120-0088,2,PROTOCOL MILESTONE,,RANDOMIZED,RANDOMIZED,,2022-10-20,1
NCT01797120,DS,NCT01797120-0088,3,DISPOSITION EVENT,FULVESTRANT,PROGRESSIVE DISEASE,PROGRESSIVE DISEASE,INDUCTION,2023-04-07,170
NCT01797120,DS,NCT01797120-0088,4,DISPOSITION EVENT,EVEROLIMUS,PROGRESSIVE DISEASE,PROGRESSIVE DISEASE,INDUCTION,2023-04-07,170
NCT01797120,DS,NCT01797120-0088,5,DISPOSITION EVENT,STUDY PARTICIPATION,DEATH,DEATH,FOLLOW-UP,2023-11-09,386
NCT01797120,DS,NCT01797120-0089,1,PROTOCOL MILESTONE,,INFORMED CONSENT OBTAINED,INFORMED CONSENT OBTAINED,,2022-11-27,-15
NCT01797120,DS,NCT01797120-0089,2,PROTOCOL MILESTONE,,RANDOMIZED,RANDOMIZED,,2022-12-12,1
NCT01797120,DS,NCT01797120-0089,3,DISPOSITION EVENT,FULVESTRANT,PROGRESSIVE DISEASE,PROGRESSIVE DISEASE,INDUCTION,2023-08-22,254
NCT01797120,DS,NCT01797120-0089,4,DISPOSITION EVENT,PLACEBO,PROGRESSIVE DISEASE,PROGRESSIVE DISEASE,INDUCTION,2023-08-22,254
NCT01797120,DS,NCT01797120-0089,5,DISPOSITION EVENT,STUDY PARTICIPATION,LOST TO FOLLOW-UP,LOST TO FOLLOW-UP,FOLLOW-UP,2023-09-29,292
NCT01797120,DS,NCT01797120-0090,1,PROTOCOL MILESTONE,,INFORMED CONSENT OBTAINED,INFORMED CONSENT OBTAINED,,2021-09-06,-26
NCT01797120,DS,NCT01797120-0090,2,PROTOCOL MILESTONE,,RANDOMIZED,RANDOMIZED,,2021-10-02,1
NCT01797120,DS,NCT01797120-0090,3,DISPOSITION EVENT,FULVESTRANT,PROGRESSIVE DISEASE,PROGRESSIVE DISEASE,INDUCTION,2021-12-26,86
NCT01797120,DS,NCT01797120-0090,4,DISPOSITION EVENT,PLACEBO,PROGRESSIVE DISEASE,PROGRESSIVE DISEASE,INDUCTION,2021-12-26,86
NCT01797120,DS,NCT01797120-0090,5,DISPOSITION EVENT,STUDY PARTICIPATION,DEATH,DEATH,FOLLOW-UP,2022-03-27,177
NCT01797120,DS,NCT01797120-0091,1,PROTOCOL MILESTONE,,INFORMED CONSENT OBTAINED,INFORMED CONSENT OBTAINED,,2021-01-31,-13
NCT01797120,DS,NCT01797120-0091,2,PROTOCOL MILESTONE,,RANDOMIZED,RANDOMIZED,,2021-02-13,1
NCT01797120,DS,NCT01797120-0091,3,DISPOSITION EVENT,FULVESTRANT,PROGRESSIVE DISEASE,PROGRESSIVE DISEASE,CONTINUATION,2022-07-03,506
NCT01797120,DS,NCT01797120-0091,4,DISPOSITION EVENT,EVEROLIMUS,PROGRESSIVE DISEASE,PROGRESSIVE DISEASE,CONTINUATION,2022-07-03,506
NCT01797120,DS,NCT01797120-0091,5,DISPOSITION EVENT,STUDY PARTICIPATION,LOST TO FOLLOW-UP,LOST TO FOLLOW-UP,FOLLOW-UP,2022-10-07,602
NCT01797120,DS,NCT01797120-0092,1,PROTOCOL MILESTONE,,INFORMED CONSENT OBTAINED,INFORMED CONSENT OBTAINED,,2021-03-08,-17
NCT01797120,DS,NCT01797120-0092,2,PROTOCOL MILESTONE,,RANDOMIZED,RANDOMIZED,,2021-03-25,1
NCT01797120,DS,NCT01797120-0092,3,DISPOSITION EVENT,FULVESTRANT,PROGRESSIVE DISEASE,PROGRESSIVE DISEASE,INDUCTION,2021-09-10,170
NCT01797120,DS,NCT01797120-0092,4,DISPOSITION EVENT,EVEROLIMUS,PROGRESSIVE DISEASE,PROGRESSIVE DISEASE,INDUCTION,2021-09-10,170
NCT01797120,DS,NCT01797120-0092,5,DISPOSITION EVENT,STUDY PARTICIPATION,LOST TO FOLLOW-UP,LOST TO FOLLOW-UP,FOLLOW-UP,2021-11-21,242
NCT01797120,DS,NCT01797120-0093,1,PROTOCOL MILESTONE,,INFORMED CONSENT OBTAINED,INFORMED CONSENT OBTAINED,,2022-02-12,-26
NCT01797120,DS,NCT01797120-0093,2,PROTOCOL MILESTONE,,RANDOMIZED,RANDOMIZED,,2022-03-10,1
NCT01797120,DS,NCT01797120-0093,3,DISPOSITION EVENT,FULVESTRANT,PROGRESSIVE DISEASE,PROGRESSIVE DISEASE,INDUCTION,2022-06-03,86
NCT01797120,DS,NCT01797120-0093,4,DISPOSITION EVENT,PLACEBO,PROGRESSIVE DISEASE,PROGRESSIVE DISEASE,INDUCTION,2022-06-03,86
NCT01797120,DS,NCT01797120-0093,5,DISPOSITION EVENT,STUDY PARTICIPATION,DEATH,DEATH,FOLLOW-UP,2023-04-13,400
NCT01797120,DS,NCT01797120-0094,1,PROTOCOL MILESTONE,,INFORMED CONSENT OBTAINED,INFORMED CONSENT OBTAINED,,2021-03-26,-9
NCT01797120,DS,NCT01797120-0094,2,PROTOCOL MILESTONE,,RANDOMIZED,RANDOMIZED,,2021-04-04,1
NCT01797120,DS,NCT01797120-0094,3,DISPOSITION EVENT,FULVESTRANT,PROGRESSIVE DISEASE,PROGRESSIVE DISEASE,INDUCTION,2021-09-20,170
NCT01797120,DS,NCT01797120-0094,4,DISPOSITION EVENT,EVEROLIMUS,PROGRESSIVE DISEASE,PROGRESSIVE DISEASE,INDUCTION,2021-09-20,170
NCT01797120,DS,NCT01797120-0094,5,DISPOSITION EVENT,STUDY PARTICIPATION,LOST TO FOLLOW-UP,LOST TO FOLLOW-UP,FOLLOW-UP,2021-11-24,235
NCT01797120,DS,NCT01797120-0095,1,PROTOCOL MILESTONE,,INFORMED CONSENT OBTAINED,INFORMED CONSENT OBTAINED,,2021-06-17,-7
NCT01797120,DS,NCT01797120-0095,2,PROTOCOL MILESTONE,,RANDOMIZED,RANDOMIZED,,2021-06-24,1
NCT01797120,DS,NCT01797120-0095,3,DISPOSITION EVENT,FULVESTRANT,PROGRESSIVE DISEASE,PROGRESSIVE DISEASE,INDUCTION,2021-12-10,170
NCT01797120,DS,NCT01797120-0095,4,DISPOSITION EVENT,PLACEBO,PROGRESSIVE DISEASE,PROGRESSIVE DISEASE,INDUCTION,2021-12-10,170
NCT01797120,DS,NCT01797120-0095,5,DISPOSITION EVENT,STUDY PARTICIPATION,DEATH,DEATH,FOLLOW-UP,2022-05-02,313
NCT01797120,DS,NCT01797120-0096,1,PROTOCOL MILESTONE,,INFORMED CONSENT OBTAINED,INFORMED CONSENT OBTAINED,,2022-01-15,-26
NCT01797120,DS,NCT01797120-0096,2,PROTOCOL MILESTONE,,RANDOMIZED,RANDOMIZED,,2022-02-10,1
NCT01797120,DS,NCT01797120-0096,3,DISPOSITION EVENT,FULVESTRANT,PROGRESSIVE DISEASE,PROGRESSIVE DISEASE,INDUCTION,2022-10-21,254
NCT01797120,DS,NCT01797120-0096,4,DISPOSITION EVENT,PLACEBO,PROGRESSIVE DISEASE,PROGRESSIVE DISEASE,INDUCTION,2022-10-21,254
NCT01797120,DS,NCT01797120-0096,5,DISPOSITION EVENT,STUDY PARTICIPATION,LOST TO FOLLOW-UP,LOST TO FOLLOW-UP,FOLLOW-UP,2022-12-07,301
NCT01797120,DS,NCT01797120-0097,1,PROTOCOL MILESTONE,,INFORMED CONSENT OBTAINED,INFORMED CONSENT OBTAINED,,2021-06-30,-21
NCT01797120,DS,NCT01797120-0097,2,PROTOCOL MILESTONE,,RANDOMIZED,RANDOMIZED,,2021-07-21,1
NCT01797120,DS,NCT01797120-0097,3,DISPOSITION EVENT,FULVESTRANT,PROGRESSIVE DISEASE,PROGRESSIVE DISEASE,INDUCTION,2021-10-14,86
NCT01797120,DS,NCT01797120-0097,4,DISPOSITION EVENT,PLACEBO,PROGRESSIVE DISEASE,PROGRESSIVE DISEASE,INDUCTION,2021-10-14,86
NCT01797120,DS,NCT01797120-0097,5,DISPOSITION EVENT,STUDY PARTICIPATION,LOST TO FOLLOW-UP,LOST TO FOLLOW-UP,FOLLOW-UP,2022-03-03,226
NCT01797120,DS,NCT01797120-0098,1,PROTOCOL MILESTONE,,INFORMED CONSENT OBTAINED,INFORMED CONSENT OBTAINED,,2022-05-07,-7
NCT01797120,DS,NCT01797120-0098,2,PROTOCOL MILESTONE,,RANDOMIZED,RANDOMIZED,,2022-05-14,1
NCT01797120,DS,NCT01797120-0098,3,DISPOSITION EVENT,FULVESTRANT,PROGRESSIVE DISEASE,PROGRESSIVE DISEASE,INDUCTION,2022-08-07,86
NCT01797120,DS,NCT01797120-0098,4,DISPOSITION EVENT,PLACEBO,PROGRESSIVE DISEASE,PROGRESSIVE DISEASE,INDUCTION,2022-08-07,86
NCT01797120,DS,NCT01797120-0098,5,DISPOSITION EVENT,STUDY PARTICIPATION,LOST TO FOLLOW-UP,LOST TO FOLLOW-UP,FOLLOW-UP,2023-01-17,249
NCT01797120,DS,NCT01797120-0099,1,PROTOCOL MILESTONE,,INFORMED CONSENT OBTAINED,INFORMED CONSENT OBTAINED,,2022-03-31,-26
NCT01797120,DS,NCT01797120-0099,2,PROTOCOL MILESTONE,,RANDOMIZED,RANDOMIZED,,2022-04-26,1
NCT01797120,DS,NCT01797120-0099,3,DISPOSITION EVENT,FULVESTRANT,LOST TO FOLLOW-UP,LOST TO FOLLOW-UP,INDUCTION,2023-01-07,257
NCT01797120,DS,NCT01797120-0099,4,DISPOSITION EVENT,EVEROLIMUS,LOST TO FOLLOW-UP,LOST TO FOLLOW-UP,INDUCTION,2023-01-07,257
NCT01797120,DS,NCT01797120-0099,5,DISPOSITION EVENT,STUDY PARTICIPATION,LOST TO FOLLOW-UP,LOST TO FOLLOW-UP,FOLLOW-UP,2023-04-26,366
NCT01797120,DS,NCT01797120-0100,1,PROTOCOL MILESTONE,,INFORMED CONSENT OBTAINED,INFORMED CONSENT OBTAINED,,2021-11-13,-13
NCT01797120,DS,NCT01797120-0100,2,PROTOCOL MILESTONE,,RANDOMIZED,RANDOMIZED,,2021-11-26,1
NCT01797120,DS,NCT01797120-0100,3,DISPOSITION EVENT,FULVESTRANT,PROGRESSIVE DISEASE,PROGRESSIVE DISEASE,INDUCTION,2022-02-19,86
NCT01797120,DS,NCT01797120-0100,4,DISPOSITION EVENT,PLACEBO,PROGRESSIVE DISEASE,PROGRESSIVE DISEASE,INDUCTION,2022-02-19,86
NCT01797120,DS,NCT01797120-0100,5,DISPOSITION EVENT,STUDY PARTICIPATION,WITHDRAWAL BY SUBJECT,WITHDRAWAL BY SUBJECT,FOLLOW-UP,2022-08-15,263
NCT01797120,DS,NCT01797120-0101,1,PROTOCOL MILESTONE,,INFORMED CONSENT OBTAINED,INFORMED CONSENT OBTAINED,,2022-06-17,-8
NCT01797120,DS,NCT01797120-0101,2,PROTOCOL MILESTONE,,RANDOMIZED,RANDOMIZED,,2022-06-25,1
NCT01797120,DS,NCT01797120-0101,3,DISPOSITION EVENT,FULVESTRANT,PROGRESSIVE DISEASE,PROGRESSIVE DISEASE,INDUCTION,2022-09-18,86
NCT01797120,DS,NCT01797120-0101,4,DISPOSITION EVENT,PLACEBO,PROGRESSIVE DISEASE,PROGRESSIVE DISEASE,INDUCTION,2022-09-18,86
NCT01797120,DS,NCT01797120-0101,5,DISPOSITION EVENT,STUDY PARTICIPATION,DEATH,DEATH,FOLLOW-UP,2024-01-07,562
NCT01797120,DS,NCT01797120-0102,1,PROTOCOL MILESTONE,,INFORMED CONSENT OBTAINED,INFORMED CONSENT OBTAINED,,2021-07-10,-19
NCT01797120,DS,NCT01797120-0102,2,PROTOCOL MILESTONE,,RANDOMIZED,RANDOMIZED,,2021-07-29,1
NCT01797120,DS,NCT01797120-0102,3,DISPOSITION EVENT,FULVESTRANT,PROGRESSIVE DISEASE,PROGRESSIVE DISEASE,INDUCTION,2022-01-14,170
NCT01797120,DS,NCT01797120-0102,4,DISPOSITION EVENT,PLACEBO,PROGRESSIVE DISEASE,PROGRESSIVE DISEASE,INDUCTION,2022-01-14,170
NCT01797120,DS,NCT01797120-0102,5,DISPOSITION EVENT,STUDY PARTICIPATION,LOST TO FOLLOW-UP,LOST TO FOLLOW-UP,FOLLOW-UP,2022-05-21,297
NCT01797120,DS,NCT01797120-0103,1,PROTOCOL MILESTONE,,INFORMED CONSENT OBTAINED,INFORMED CONSENT OBTAINED,,2022-08-16,-25
NCT01797120,DS,NCT01797120-0103,2,PROTOCOL MILESTONE,,RANDOMIZED,RANDOMIZED,,2022-09-10,1
NCT01797120,DS,NCT01797120-0103,3,DISPOSITION EVENT,FULVESTRANT,LOST TO FOLLOW-UP,LOST TO FOLLOW-UP,CONTINUATION,2023-10-08,394
NCT01797120,DS,NCT01797120-0103,4,DISPOSITION EVENT,EVEROLIMUS,LOST TO FOLLOW-UP,LOST TO FOLLOW-UP,CONTINUATION,2023-10-08,394
NCT01797120,DS,NCT01797120-0103,5,DISPOSITION EVENT,STUDY PARTICIPATION,LOST TO FOLLOW-UP,LOST TO FOLLOW-UP,FOLLOW-UP,2024-01-05,483
NCT01797120,DS,NCT01797120-0104,1,PROTOCOL MILESTONE,,INFORMED CONSENT OBTAINED,INFORMED CONSENT OBTAINED,,2022-07-10,-20
NCT01797120,DS,NCT01797120-0104,2,PROTOCOL MILESTONE,,RANDOMIZED,RANDOMIZED,,2022-07-30,1
NCT01797120,DS,NCT01797120-0104,3,DISPOSITION EVENT,FULVESTRANT,PROGRESSIVE DISEASE,PROGRESSIVE DISEASE,INDUCTION,2023-04-09,254
NCT01797120,DS,NCT01797120-0104,4,DISPOSITION EVENT,EVEROLIMUS,PROGRESSIVE DISEASE,PROGRESSIVE DISEASE,INDUCTION,2023-04-09,254
NCT01797120,DS,NCT01797120-0104,5,DISPOSITION EVENT,STUDY PARTICIPATION,DEATH,DEATH,FOLLOW-UP,2023-12-11,500
NCT01797120,DS,NCT01797120-0105,1,PROTOCOL MILESTONE,,INFORMED CONSENT OBTAINED,INFORMED CONSENT OBTAINED,,2021-01-01,-16
NCT01797120,DS,NCT01797120-0105,2,PROTOCOL MILESTONE,,RANDOMIZED,RANDOMIZED,,2021-01-17,1
NCT01797120,DS,NCT01797120-0105,3,DISPOSITION EVENT,FULVESTRANT,PROGRESSIVE DISEASE,PROGRESSIVE DISEASE,INDUCTION,2021-07-05,170
NCT01797120,DS,NCT01797120-0105,4,DISPOSITION EVENT,EVEROLIMUS,PROGRESSIVE DISEASE,PROGRESSIVE DISEASE,INDUCTION,2021-07-05,170
NCT01797120,DS,NCT01797120-0105,5,DISPOSITION EVENT,STUDY PARTICIPATION,DEATH,DEATH,FOLLOW-UP,2022-04-08,447
NCT01797120,DS,NCT01797120-0106,1,PROTOCOL MILESTONE,,INFORMED CONSENT OBTAINED,INFORMED CONSENT OBTAINED,,2021-04-06,-11
NCT01797120,DS,NCT01797120-0106,2,PROTOCOL MILESTONE,,RANDOMIZED,RANDOMIZED,,2021-04-17,1
NCT01797120,DS,NCT01797120-0106,3,DISPOSITION EVENT,FULVESTRANT,PROGRESSIVE DISEASE,PROGRESSIVE DISEASE,INDUCTION,2021-07-11,86
NCT01797120,DS,NCT01797120-0106,4,DISPOSITION EVENT,PLACEBO,PROGRESSIVE DISEASE,PROGRESSIVE DISEASE,INDUCTION,2021-07-11,86
NCT01797120,DS,NCT01797120-0106,5,DISPOSITION EVENT,STUDY PARTICIPATION,DEATH,DEATH,FOLLOW-UP,2022-05-10,389
NCT01797120,DS,NCT01797120-0107,1,PROTOCOL MILESTONE,,INFORMED CONSENT OBTAINED,INFORMED CONSENT OBTAINED,,2021-05-21,-24
NCT01797120,DS,NCT01797120-0107,2,PROTOCOL MILESTONE,,RANDOMIZED,RANDOMIZED,,2021-06-14,1
NCT01797120,DS,NCT01797120-0107,3,DISPOSITION EVENT,FULVESTRANT,PROGRESSIVE DISEASE,PROGRESSIVE DISEASE,INDUCTION,2021-11-30,170
NCT01797120,DS,NCT01797120-0107,4,DISPOSITION EVENT,EVEROLIMUS,PROGRESSIVE DISEASE,PROGRESSIVE DISEASE,INDUCTION,2021-11-30,170
NCT01797120,DS,NCT01797120-0107,5,DISPOSITION EVENT,STUDY PARTICIPATION,DEATH,DEATH,FOLLOW-UP,2022-04-21,312
NCT01797120,DS,NCT01797120-0108,1,PROTOCOL MILESTONE,,INFORMED CONSENT OBTAINED,INFORMED CONSENT OBTAINED,,2022-08-20,-10
NCT01797120,DS,NCT01797120-0108,2,PROTOCOL MILESTONE,,RANDOMIZED,RANDOMIZED,,2022-08-30,1
NCT01797120,DS,NCT01797120-0108,3,DISPOSITION EVENT,FULVESTRANT,PROGRESSIVE DISEASE,PROGRESSIVE DISEASE,INDUCTION,2023-02-15,170
NCT01797120,DS,NCT01797120-0108,4,DISPOSITION EVENT,EVEROLIMUS,PROGRESSIVE DISEASE,PROGRESSIVE DISEASE,INDUCTION,2023-02-15,170
NCT01797120,DS,NCT01797120-0108,5,DISPOSITION EVENT,STUDY PARTICIPATION,DEATH,DEATH,FOLLOW-UP,2023-03-05,188
NCT01797120,DS,NCT01797120-0109,1,PROTOCOL MILESTONE,,INFORMED CONSENT OBTAINED,INFORMED CONSENT OBTAINED,,2022-06-12,-9
NCT01797120,DS,NCT01797120-0109,2,PROTOCOL MILESTONE,,RANDOMIZED,RANDOMIZED,,2022-06-21,1
NCT01797120,DS,NCT01797120-0109,3,DISPOSITION EVENT,FULVESTRANT,PROGRESSIVE DISEASE,PROGRESSIVE DISEASE,INDUCTION,2022-09-14,86
NCT01797120,DS,NCT01797120-0109,4,DISPOSITION EVENT,PLACEBO,PROGRESSIVE DISEASE,PROGRESSIVE DISEASE,INDUCTION,2022-09-14,86
NCT01797120,DS,NCT01797120-0109,5,DISPOSITION EVENT,STUDY PARTICIPATION,DEATH,DEATH,FOLLOW-UP,2022-10-12,114
NCT01797120,DS,NCT01797120-0110,1,PROTOCOL MILESTONE,,INFORMED CONSENT OBTAINED,INFORMED CONSENT OBTAINED,,2022-08-25,-27
NCT01797120,DS,NCT01797120-0110,2,PROTOCOL MILESTONE,,RANDOMIZED,RANDOMIZED,,2022-09-21,1
NCT01797120,DS,NCT01797120-0110,3,DISPOSITION EVENT,FULVESTRANT,PROGRESSIVE DISEASE,PROGRESSIVE DISEASE,CONTINUATION,2023-08-24,338
NCT01797120,DS,NCT01797120-0110,4,DISPOSITION EVENT,EVEROLIMUS,PROGRESSIVE DISEASE,PROGRESSIVE DISEASE,CONTINUATION,2023-08-24,338
NCT01797120,DS,NCT01797120-0110,5,DISPOSITION EVENT,STUDY PARTICIPATION,LOST TO FOLLOW-UP,LOST TO FOLLOW-UP,FOLLOW-UP,2024-02-08,506
NCT01797120,DS,NCT01797120-0111,1,PROTOCOL MILESTONE,,INFORMED CONSENT OBTAINED,INFORMED CONSENT OBTAINED,,2021-06-21,-20
NCT01797120,DS,NCT01797120-0111,2,PROTOCOL MILESTONE,,RANDOMIZED,RANDOMIZED,,2021-07-11,1
NCT01797120,DS,NCT01797120-0111,3,DISPOSITION EVENT,FULVESTRANT,PROGRESSIVE DISEASE,PROGRESSIVE DISEASE,INDUCTION,2021-10-04,86
NCT01797120,DS,NCT01797120-0111,4,DISPOSITION EVENT,EVEROLIMUS,PROGRESSIVE DISEASE,PROGRESSIVE DISEASE,INDUCTION,2021-10-04,86
NCT01797120,DS,NCT01797120-0111,5,DISPOSITION EVENT,STUDY PARTICIPATION,WITHDRAWAL BY SUBJECT,WITHDRAWAL BY SUBJECT,FOLLOW-UP,2021-12-22,165
NCT01797120,DS,NCT01797120-0112,1,PROTOCOL MILESTONE,,INFORMED CONSENT OBTAINED,INFORMED CONSENT OBTAINED,,2021-06-23,-22
NCT01797120,DS,NCT01797120-0112,2,PROTOCOL MILESTONE,,RANDOMIZED,RANDOMIZED,,2021-07-15,1
NCT01797120,DS,NCT01797120-0112,3,DISPOSITION EVENT,FULVESTRANT,PROGRESSIVE DISEASE,PROGRESSIVE DISEASE,CONTINUATION,2022-06-17,338
NCT01797120,DS,NCT01797120-0112,4,DISPOSITION EVENT,EVEROLIMUS,PROGRESSIVE DISEASE,PROGRESSIVE DISEASE,CONTINUATION,2022-06-17,338
NCT01797120,DS,NCT01797120-0112,5,DISPOSITION EVENT,STUDY PARTICIPATION,DEATH,DEATH,FOLLOW-UP,2022-06-18,339
NCT01797120,DS,NCT01797120-0113,1,PROTOCOL MILESTONE,,INFORMED CONSENT OBTAINED,INFORMED CONSENT OBTAINED,,2021-10-24,-11
NCT01797120,DS,NCT01797120-0113,2,PROTOCOL MILESTONE,,RANDOMIZED,RANDOMIZED,,2021-11-04,1
NCT01797120,DS,NCT01797120-0113,3,DISPOSITION EVENT,FULVESTRANT,PROGRESSIVE DISEASE,PROGRESSIVE DISEASE,INDUCTION,2022-01-28,86
NCT01797120,DS,NCT01797120-0113,4,DISPOSITION EVENT,EVEROLIMUS,PROGRESSIVE DISEASE,PROGRESSIVE DISEASE,INDUCTION,2022-01-28,86
NCT01797120,DS,NCT01797120-0113,5,DISPOSITION EVENT,STUDY PARTICIPATION,DEATH,DEATH,FOLLOW-UP,2022-03-06,123
NCT01797120,DS,NCT01797120-0114,1,PROTOCOL MILESTONE,,INFORMED CONSENT OBTAINED,INFORMED CONSENT OBTAINED,,2021-05-01,-16
NCT01797120,DS,NCT01797120-0114,2,PROTOCOL MILESTONE,,RANDOMIZED,RANDOMIZED,,2021-05-17,1
NCT01797120,DS,NCT01797120-0114,3,DISPOSITION EVENT,FULVESTRANT,PROGRESSIVE DISEASE,PROGRESSIVE DISEASE,INDUCTION,2021-11-02,170
NCT01797120,DS,NCT01797120-0114,4,DISPOSITION EVENT,EVEROLIMUS,PROGRESSIVE DISEASE,PROGRESSIVE DISEASE,INDUCTION,2021-11-02,170
NCT01797120,DS,NCT01797120-0114,5,DISPOSITION EVENT,STUDY PARTICIPATION,DEATH,DEATH,FOLLOW-UP,2022-04-05,324
NCT01797120,DS,NCT01797120-0115,1,PROTOCOL MILESTONE,,INFORMED CONSENT OBTAINED,INFORMED CONSENT OBTAINED,,2021-03-24,-11
NCT01797120,DS,NCT01797120-0115,2,PROTOCOL MILESTONE,,RANDOMIZED,RANDOMIZED,,2021-04-04,1
NCT01797120,DS,NCT01797120-0115,3,DISPOSITION EVENT,FULVESTRANT,PROGRESSIVE DISEASE,PROGRESSIVE DISEASE,CONTINUATION,2024-09-16,1262
NCT01797120,DS,NCT01797120-0115,4,DISPOSITION EVENT,EVEROLIMUS,PROGRESSIVE DISEASE,PROGRESSIVE DISEASE,CONTINUATION,2024-09-16,1262
NCT01797120,DS,NCT01797120-0115,5,DISPOSITION EVENT,STUDY PARTICIPATION,DEATH,DEATH,FOLLOW-UP,2025-06-05,1524
NCT01797120,DS,NCT01797120-0116,1,PROTOCOL MILESTONE,,INFORMED CONSENT OBTAINED,INFORMED CONSENT OBTAINED,,2021-03-05,-24
NCT01797120,DS,NCT01797120-0116,2,PROTOCOL MILESTONE,,RANDOMIZED,RANDOMIZED,,2021-03-29,1
NCT01797120,DS,NCT01797120-0116,3,DISPOSITION EVENT,FULVESTRANT,PROGRESSIVE DISEASE,PROGRESSIVE DISEASE,INDUCTION,2021-09-14,170
NCT01797120,DS,NCT01797120-0116,4,DISPOSITION EVENT,PLACEBO,PROGRESSIVE DISEASE,PROGRESSIVE DISEASE,INDUCTION,2021-09-14,170
NCT01797120,DS,NCT01797120-0116,5,DISPOSITION EVENT,STUDY PARTICIPATION,LOST TO FOLLOW-UP,LOST TO FOLLOW-UP,FOLLOW-UP,2021-11-02,219
NCT01797120,DS,NCT01797120-0117,1,PROTOCOL MILESTONE,,INFORMED CONSENT OBTAINED,INFORMED CONSENT OBTAINED,,2021-05-16,-25
NCT01797120,DS,NCT01797120-0117,2,PROTOCOL MILESTONE,,RANDOMIZED,RANDOMIZED,,2021-06-10,1
NCT01797120,DS,NCT01797120-0117,3,DISPOSITION EVENT,FULVESTRANT,PROGRESSIVE DISEASE,PROGRESSIVE DISEASE,CONTINUATION,2022-10-28,506
NCT01797120,DS,NCT01797120-0117,4,DISPOSITION EVENT,EVEROLIMUS,PROGRESSIVE DISEASE,PROGRESSIVE DISEASE,CONTINUATION,2022-10-28,506
NCT01797120,DS,NCT01797120-0117,5,DISPOSITION EVENT,STUDY PARTICIPATION,DEATH,DEATH,FOLLOW-UP,2023-01-03,573
NCT01797120,DS,NCT01797120-0118,1,PROTOCOL MILESTONE,,INFORMED CONSENT OBTAINED,INFORMED CONSENT OBTAINED,,2021-05-08,-20
NCT01797120,DS,NCT01797120-0118,2,PROTOCOL MILESTONE,,RANDOMIZED,RANDOMIZED,,2021-05-28,1
NCT01797120,DS,NCT01797120-0118,3,DISPOSITION EVENT,FULVESTRANT,PROGRESSIVE DISEASE,PROGRESSIVE DISEASE,INDUCTION,2021-11-13,170
NCT01797120,DS,NCT01797120-0118,4,DISPOSITION EVENT,PLACEBO,PROGRESSIVE DISEASE,PROGRESSIVE DISEASE,INDUCTION,2021-11-13,170
NCT01797120,DS,NCT01797120-0118,5,DISPOSITION EVENT,STUDY PARTICIPATION,DEATH,DEATH,FOLLOW-UP,2021-11-18,175
NCT01797120,DS,NCT01797120-0119,1,PROTOCOL MILESTONE,,INFORMED CONSENT OBTAINED,INFORMED CONSENT OBTAINED,,2022-07-19,-20
NCT01797120,DS,NCT01797120-0119,2,PROTOCOL MILESTONE,,RANDOMIZED,RANDOMIZED,,2022-08-08,1
NCT01797120,DS,NCT01797120-0119,3,DISPOSITION EVENT,FULVESTRANT,PROGRESSIVE DISEASE,PROGRESSIVE DISEASE,INDUCTION,2022-11-01,86
NCT01797120,DS,NCT01797120-0119,4,DISPOSITION EVENT,PLACEBO,PROGRESSIVE DISEASE,PROGRESSIVE DISEASE,INDUCTION,2022-11-01,86
NCT01797120,DS,NCT01797120-0119,5,DISPOSITION EVENT,STUDY PARTICIPATION,DEATH,DEATH,FOLLOW-UP,2022-11-16,101
NCT01797120,DS,NCT01797120-0120,1,PROTOCOL MILESTONE,,INFORMED CONSENT OBTAINED,INFORMED CONSENT OBTAINED,,2022-03-23,-9
NCT01797120,DS,NCT01797120-0120,2,PROTOCOL MILESTONE,,RANDOMIZED,RANDOMIZED,,2022-04-01,1
NCT01797120,DS,NCT01797120-0120,3,DISPOSITION EVENT,FULVESTRANT,PROGRESSIVE DISEASE,PROGRESSIVE DISEASE,INDUCTION,2022-06-25,86
NCT01797120,DS,NCT01797120-0120,4,DISPOSITION EVENT,EVEROLIMUS,PROGRESSIVE DISEASE,PROGRESSIVE DISEASE,INDUCTION,2022-06-25,86
NCT01797120,DS,NCT01797120-0120,5,DISPOSITION EVENT,STUDY PARTICIPATION,DEATH,DEATH,FOLLOW-UP,2022-07-29,120
NCT01797120,DS,NCT01797120-0121,1,PROTOCOL MILESTONE,,INFORMED CONSENT OBTAINED,INFORMED CONSENT OBTAINED,,2021-03-19,-10
NCT01797120,DS,NCT01797120-0121,2,PROTOCOL MILESTONE,,RANDOMIZED,RANDOMIZED,,2021-03-29,1
NCT01797120,DS,NCT01797120-0121,3,DISPOSITION EVENT,FULVESTRANT,PROGRESSIVE DISEASE,PROGRESSIVE DISEASE,CONTINUATION,2022-11-08,590
NCT01797120,DS,NCT01797120-0121,4,DISPOSITION EVENT,EVEROLIMUS,PROGRESSIVE DISEASE,PROGRESSIVE DISEASE,CONTINUATION,2022-11-08,590
NCT01797120,DS,NCT01797120-0121,5,DISPOSITION EVENT,STUDY PARTICIPATION,DEATH,DEATH,FOLLOW-UP,2023-03-13,715
NCT01797120,DS,NCT01797120-0122,1,PROTOCOL MILESTONE,,INFORMED CONSENT OBTAINED,INFORMED CONSENT OBTAINED,,2020-12-29,-16
NCT01797120,DS,NCT01797120-0122,2,PROTOCOL MILESTONE,,RANDOMIZED,RANDOMIZED,,2021-01-14,1
NCT01797120,DS,NCT01797120-0122,3,DISPOSITION EVENT,FULVESTRANT,PROGRESSIVE DISEASE,PROGRESSIVE DISEASE,INDUCTION,2021-04-09,86
NCT01797120,DS,NCT01797120-0122,4,DISPOSITION EVENT,EVEROLIMUS,PROGRESSIVE DISEASE,PROGRESSIVE DISEASE,INDUCTION,2021-04-09,86
NCT01797120,DS,NCT01797120-0122,5,DISPOSITION EVENT,STUDY PARTICIPATION,LOST TO FOLLOW-UP,LOST TO FOLLOW-UP,FOLLOW-UP,2021-07-10,178
NCT01797120,DS,NCT01797120-0123,1,PROTOCOL MILESTONE,,INFORMED CONSENT OBTAINED,INFORMED CONSENT OBTAINED,,2021-10-23,-19
NCT01797120,DS,NCT01797120-0123,2,PROTOCOL MILESTONE,,RANDOMIZED,RANDOMIZED,,2021-11-11,1
NCT01797120,DS,NCT01797120-0123,3,DISPOSITION EVENT,FULVESTRANT,PROGRESSIVE DISEASE,PROGRESSIVE DISEASE,INDUCTION,2022-04-29,170
NCT01797120,DS,NCT01797120-0123,4,DISPOSITION EVENT,PLACEBO,PROGRESSIVE DISEASE,PROGRESSIVE DISEASE,INDUCTION,2022-04-29,170
NCT01797120,DS,NCT01797120-0123,5,DISPOSITION EVENT,STUDY PARTICIPATION,DEATH,DEATH,FOLLOW-UP,2022-06-15,217
NCT01797120,DS,NCT01797120-0124,1,PROTOCOL MILESTONE,,INFORMED CONSENT OBTAINED,INFORMED CONSENT OBTAINED,,2022-07-26,-22
NCT01797120,DS,NCT01797120-0124,2,PROTOCOL MILESTONE,,RANDOMIZED,RANDOMIZED,,2022-08-17,1
NCT01797120,DS,NCT01797120-0124,3,DISPOSITION EVENT,FULVESTRANT,PROGRESSIVE DISEASE,PROGRESSIVE DISEASE,CONTINUATION,2023-07-20,338
NCT01797120,DS,NCT01797120-0124,4,DISPOSITION EVENT,EVEROLIMUS,PROGRESSIVE DISEASE,PROGRESSIVE DISEASE,CONTINUATION,2023-07-20,338
NCT01797120,DS,NCT01797120-0124,5,DISPOSITION EVENT,STUDY PARTICIPATION,LOST TO FOLLOW-UP,LOST TO FOLLOW-UP,FOLLOW-UP,2023-11-16,457
NCT01797120,DS,NCT01797120-0125,1,PROTOCOL MILESTONE,,INFORMED CONSENT OBTAINED,INFORMED CONSENT OBTAINED,,2021-04-22,-9
NCT01797120,DS,NCT01797120-0125,2,PROTOCOL MILESTONE,,RANDOMIZED,RANDOMIZED,,2021-05-01,1
NCT01797120,DS,NCT01797120-0125,3,DISPOSITION EVENT,FULVESTRANT,PROGRESSIVE DISEASE,PROGRESSIVE DISEASE,INDUCTION,2021-07-25,86
NCT01797120,DS,NCT01797120-0125,4,DISPOSITION EVENT,PLACEBO,PROGRESSIVE DISEASE,PROGRESSIVE DISEASE,INDUCTION,2021-07-25,86
NCT01797120,DS,NCT01797120-0125,5,DISPOSITION EVENT,STUDY PARTICIPATION,DEATH,DEATH,FOLLOW-UP,2022-08-30,487
NCT01797120,DS,NCT01797120-0126,1,PROTOCOL MILESTONE,,INFORMED CONSENT OBTAINED,INFORMED CONSENT OBTAINED,,2022-11-21,-26
NCT01797120,DS,NCT01797120-0126,2,PROTOCOL MILESTONE,,RANDOMIZED,RANDOMIZED,,2022-12-17,1
NCT01797120,DS,NCT01797120-0126,3,DISPOSITION EVENT,FULVESTRANT,PROGRESSIVE DISEASE,PROGRESSIVE DISEASE,INDUCTION,2023-06-04,170
NCT01797120,DS,NCT01797120-0126,4,DISPOSITION EVENT,EVEROLIMUS,PROGRESSIVE DISEASE,PROGRESSIVE DISEASE,INDUCTION,2023-06-04,170
NCT01797120,DS,NCT01797120-0126,5,DISPOSITION EVENT,STUDY PARTICIPATION,DEATH,DEATH,FOLLOW-UP,2024-06-21,553
NCT01797120,DS,NCT01797120-0127,1,PROTOCOL MILESTONE,,INFORMED CONSENT OBTAINED,INFORMED CONSENT OBTAINED,,2021-09-26,-13
NCT01797120,DS,NCT01797120-0127,2,PROTOCOL MILESTONE,,RANDOMIZED,RANDOMIZED,,2021-10-09,1
NCT01797120,DS,NCT01797120-0127,3,DISPOSITION EVENT,FULVESTRANT,PROGRESSIVE DISEASE,PROGRESSIVE DISEASE,CONTINUATION,2024-07-14,1010
NCT01797120,DS,NCT01797120-0127,4,DISPOSITION EVENT,EVEROLIMUS,PROGRESSIVE DISEASE,PROGRESSIVE DISEASE,CONTINUATION,2024-07-14,1010
NCT01797120,DS,NCT01797120-0127,5,DISPOSITION EVENT,STUDY PARTICIPATION,DEATH,DEATH,FOLLOW-UP,2025-11-27,1511
NCT01797120,DS,NCT01797120-0128,1,PROTOCOL MILESTONE,,INFORMED CONSENT OBTAINED,INFORMED CONSENT OBTAINED,,2022-02-10,-21
NCT01797120,DS,NCT01797120-0128,2,PROTOCOL MILESTONE,,RANDOMIZED,RANDOMIZED,,2022-03-03,1
NCT01797120,DS,NCT01797120-0128,3,DISPOSITION EVENT,FULVESTRANT,PROGRESSIVE DISEASE,PROGRESSIVE DISEASE,CONTINUATION,2023-07-21,506
NCT01797120,DS,NCT01797120-0128,4,DISPOSITION EVENT,PLACEBO,PROGRESSIVE DISEASE,PROGRESSIVE DISEASE,CONTINUATION,2023-07-21,506
NCT01797120,DS,NCT01797120-0128,5,DISPOSITION EVENT,STUDY PARTICIPATION,LOST TO FOLLOW-UP,LOST TO FOLLOW-UP,FOLLOW-UP,2023-10-10,587
NCT01797120,DS,NCT01797120-0129,1,PROTOCOL MILESTONE,,INFORMED CONSENT OBTAINED,INFORMED CONSENT OBTAINED,,2022-03-24,-23
NCT01797120,DS,NCT01797120-0129,2,PROTOCOL MILESTONE,,RANDOMIZED,RANDOMIZED,,2022-04-16,1
NCT01797120,DS,NCT01797120-0129,3,DISPOSITION EVENT,FULVESTRANT,PROGRESSIVE DISEASE,PROGRESSIVE DISEASE,CONTINUATION,2023-11-26,590
NCT01797120,DS,NCT01797120-0129,4,DISPOSITION EVENT,PLACEBO,PROGRESSIVE DISEASE,PROGRESSIVE DISEASE,CONTINUATION,2023-11-26,590
NCT01797120,DS,NCT01797120-0129,5,DISPOSITION EVENT,STUDY PARTICIPATION,DEATH,DEATH,FOLLOW-UP,2024-02-12,668
NCT01797120,DS,NCT01797120-0130,1,PROTOCOL MILESTONE,,INFORMED CONSENT OBTAINED,INFORMED CONSENT OBTAINED,,2021-09-20,-22
NCT01797120,DS,NCT01797120-0130,2,PROTOCOL MILESTONE,,RANDOMIZED,RANDOMIZED,,2021-10-12,1
NCT01797120,DS,NCT01797120-0130,3,DISPOSITION EVENT,FULVESTRANT,PROGRESSIVE DISEASE,PROGRESSIVE DISEASE,INDUCTION,2022-06-22,254
NCT01797120,DS,NCT01797120-0130,4,DISPOSITION EVENT,PLACEBO,PROGRESSIVE DISEASE,PROGRESSIVE DISEASE,INDUCTION,2022-06-22,254
NCT01797120,DS,NCT01797120-0130,5,DISPOSITION EVENT,STUDY PARTICIPATION,DEATH,DEATH,FOLLOW-UP,2022-08-16,309
NCT01797120,DS,NCT01797120-0131,1,PROTOCOL MILESTONE,,INFORMED CONSENT OBTAINED,INFORMED CONSENT OBTAINED,,2021-09-19,-15
NCT01797120,DS,NCT01797120-0131,2,PROTOCOL MILESTONE,,RANDOMIZED,RANDOMIZED,,2021-10-04,1
NCT01797120,DS,NCT01797120-0131,3,DISPOSITION EVENT,FULVESTRANT,LOST TO FOLLOW-UP,LOST TO FOLLOW-UP,CONTINUATION,2023-01-15,469
NCT01797120,DS,NCT01797120-0131,4,DISPOSITION EVENT,EVEROLIMUS,LOST TO FOLLOW-UP,LOST TO FOLLOW-UP,CONTINUATION,2023-01-15,469
NCT01797120,DS,NCT01797120-0131,5,DISPOSITION EVENT,STUDY PARTICIPATION,LOST TO FOLLOW-UP,LOST TO FOLLOW-UP,FOLLOW-UP,2023-04-11,555
NCT01797120,DS,NCT01797120-0132,1,PROTOCOL MILESTONE,,INFORMED CONSENT OBTAINED,INFORMED CONSENT OBTAINED,,2021-11-14,-7
NCT01797120,DS,NCT01797120-0132,2,PROTOCOL MILESTONE,,RANDOMIZED,RANDOMIZED,,2021-11-21,1
NCT01797120,DS,NCT01797120-0132,3,DISPOSITION EVENT,FULVESTRANT,PROGRESSIVE DISEASE,PROGRESSIVE DISEASE,INDUCTION,2022-02-14,86
NCT01797120,DS,NCT01797120-0132,4,DISPOSITION EVENT,EVEROLIMUS,PROGRESSIVE DISEASE,PROGRESSIVE DISEASE,INDUCTION,2022-02-14,86
NCT01797120,DS,NCT01797120-0132,5,DISPOSITION EVENT,STUDY PARTICIPATION,DEATH,DEATH,FOLLOW-UP,2022-10-11,325
NCT01797120,DS,NCT01797120-0133,1,PROTOCOL MILESTONE,,INFORMED CONSENT OBTAINED,INFORMED CONSENT OBTAINED,,2022-06-02,-17
NCT01797120,DS,NCT01797120-0133,2,PROTOCOL MILESTONE,,RANDOMIZED,RANDOMIZED,,2022-06-19,1
NCT01797120,DS,NCT01797120-0133,3,DISPOSITION EVENT,FULVESTRANT,WITHDRAWAL BY SUBJECT,WITHDRAWAL BY SUBJECT,CONTINUATION,2023-07-09,386
NCT01797120,DS,NCT01797120-0133,4,DISPOSITION EVENT,EVEROLIMUS,WITHDRAWAL BY SUBJECT,WITHDRAWAL BY SUBJECT,CONTINUATION,2023-07-09,386
NCT01797120,DS,NCT01797120-0133,5,DISPOSITION EVENT,STUDY PARTICIPATION,WITHDRAWAL BY SUBJECT,WITHDRAWAL BY SUBJECT,FOLLOW-UP,2023-07-09,386
NCT01797120,DS,NCT01797120-0134,1,PROTOCOL MILESTONE,,INFORMED CONSENT OBTAINED,INFORMED CONSENT OBTAINED,,2021-07-29,-18
NCT01797120,DS,NCT01797120-0134,2,PROTOCOL MILESTONE,,RANDOMIZED,RANDOMIZED,,2021-08-16,1
NCT01797120,DS,NCT01797120-0134,3,DISPOSITION EVENT,FULVESTRANT,PROGRESSIVE DISEASE,PROGRESSIVE DISEASE,CONTINUATION,2022-07-19,338
NCT01797120,DS,NCT01797120-0134,4,DISPOSITION EVENT,PLACEBO,PROGRESSIVE DISEASE,PROGRESSIVE DISEASE,CONTINUATION,2022-07-19,338
NCT01797120,DS,NCT01797120-0134,5,DISPOSITION EVENT,STUDY PARTICIPATION,DEATH,DEATH,FOLLOW-UP,2022-09-27,408
NCT01797120,DS,NCT01797120-0135,1,PROTOCOL MILESTONE,,INFORMED CONSENT OBTAINED,INFORMED CONSENT OBTAINED,,2022-07-30,-20
NCT01797120,DS,NCT01797120-0135,2,PROTOCOL MILESTONE,,RANDOMIZED,RANDOMIZED,,2022-08-19,1
NCT01797120,DS,NCT01797120-0135,3,DISPOSITION EVENT,FULVESTRANT,PROGRESSIVE DISEASE,PROGRESSIVE DISEASE,INDUCTION,2023-04-29,254
NCT01797120,DS,NCT01797120-0135,4,DISPOSITION EVENT,PLACEBO,PROGRESSIVE DISEASE,PROGRESSIVE DISEASE,INDUCTION,2023-04-29,254
NCT01797120,DS,NCT01797120-0135,5,DISPOSITION EVENT,STUDY PARTICIPATION,WITHDRAWAL BY SUBJECT,WITHDRAWAL BY SUBJECT,FOLLOW-UP,2023-08-16,363
NCT01797120,DS,NCT01797120-0136,1,PROTOCOL MILESTONE,,INFORMED CONSENT OBTAINED,INFORMED CONSENT OBTAINED,,2022-09-26,-14
NCT01797120,DS,NCT01797120-0136,2,PROTOCOL MILESTONE,,RANDOMIZED,RANDOMIZED,,2022-10-10,1
NCT01797120,DS,NCT01797120-0136,3,DISPOSITION EVENT,FULVESTRANT,PROGRESSIVE DISEASE,PROGRESSIVE DISEASE,INDUCTION,2023-03-28,170
NCT01797120,DS,NCT01797120-0136,4,DISPOSITION EVENT,PLACEBO,PROGRESSIVE DISEASE,PROGRESSIVE DISEASE,INDUCTION,2023-03-28,170
NCT01797120,DS,NCT01797120-0136,5,DISPOSITION EVENT,STUDY PARTICIPATION,DEATH,DEATH,FOLLOW-UP,2023-09-03,329
NCT01797120,DS,NCT01797120-0137,1,PROTOCOL MILESTONE,,INFORMED CONSENT OBTAINED,INFORMED CONSENT OBTAINED,,2022-07-15,-13
NCT01797120,DS,NCT01797120-0137,2,PROTOCOL MILESTONE,,RANDOMIZED,RANDOMIZED,,2022-07-28,1
NCT01797120,DS,NCT01797120-0137,3,DISPOSITION EVENT,FULVESTRANT,PROGRESSIVE DISEASE,PROGRESSIVE DISEASE,INDUCTION,2022-10-21,86
NCT01797120,DS,NCT01797120-0137,4,DISPOSITION EVENT,PLACEBO,PROGRESSIVE DISEASE,PROGRESSIVE DISEASE,INDUCTION,2022-10-21,86
NCT01797120,DS,NCT01797120-0137,5,DISPOSITION EVENT,STUDY PARTICIPATION,DEATH,DEATH,FOLLOW-UP,2023-10-21,451
NCT01797120,DS,NCT01797120-0138,1,PROTOCOL MILESTONE,,INFORMED CONSENT OBTAINED,INFORMED CONSENT OBTAINED,,2022-09-26,-20
NCT01797120,DS,NCT01797120-0138,2,PROTOCOL MILESTONE,,RANDOMIZED,RANDOMIZED,,2022-10-16,1
NCT01797120,DS,NCT01797120-0138,3,DISPOSITION EVENT,FULVESTRANT,PROGRESSIVE DISEASE,PROGRESSIVE DISEASE,CONTINUATION,2025-07-21,1010
NCT01797120,DS,NCT01797120-0138,4,DISPOSITION EVENT,EVEROLIMUS,PROGRESSIVE DISEASE,PROGRESSIVE DISEASE,CONTINUATION,2025-07-21,1010
NCT01797120,DS,NCT01797120-0138,5,DISPOSITION EVENT,STUDY PARTICIPATION,DEATH,DEATH,FOLLOW-UP,2026-02-05,1209
NCT01797120,DS,NCT01797120-0139,1,PROTOCOL MILESTONE,,INFORMED CONSENT OBTAINED,INFORMED CONSENT OBTAINED,,2022-05-05,-28
NCT01797120,DS,NCT01797120-0139,2,PROTOCOL MILESTONE,,RANDOMIZED,RANDOMIZED,,2022-06-02,1
NCT01797120,DS,NCT01797120-0139,3,DISPOSITION EVENT,FULVESTRANT,PROGRESSIVE DISEASE,PROGRESSIVE DISEASE,CONTINUATION,2024-06-28,758
NCT01797120,DS,NCT01797120-0139,4,DISPOSITION EVENT,PLACEBO,PROGRESSIVE DISEASE,PROGRESSIVE DISEASE,CONTINUATION,2024-06-28,758
NCT01797120,DS,NCT01797120-0139,5,DISPOSITION EVENT,STUDY PARTICIPATION,LOST TO FOLLOW-UP,LOST TO FOLLOW-UP,FOLLOW-UP,2024-08-11,802
NCT01797120,DS,NCT01797120-0140,1,PROTOCOL MILESTONE,,INFORMED CONSENT OBTAINED,INFORMED CONSENT OBTAINED,,2021-08-23,-22
NCT01797120,DS,NCT01797120-0140,2,PROTOCOL MILESTONE,,RANDOMIZED,RANDOMIZED,,2021-09-14,1
NCT01797120,DS,NCT01797120-0140,3,DISPOSITION EVENT,FULVESTRANT,PROGRESSIVE DISEASE,PROGRESSIVE DISEASE,CONTINUATION,2022-08-17,338
NCT01797120,DS,NCT01797120-0140,4,DISPOSITION EVENT,EVEROLIMUS,PROGRESSIVE DISEASE,PROGRESSIVE DISEASE,CONTINUATION,2022-08-17,338
NCT01797120,DS,NCT01797120-0140,5,DISPOSITION EVENT,STUDY PARTICIPATION,DEATH,DEATH,FOLLOW-UP,2024-03-10,909
NCT01797120,DS,NCT01797120-0141,1,PROTOCOL MILESTONE,,INFORMED CONSENT OBTAINED,INFORMED CONSENT OBTAINED,,2021-05-01,-16
NCT01797120,DS,NCT01797120-0141,2,PROTOCOL MILESTONE,,RANDOMIZED,RANDOMIZED,,2021-05-17,1
NCT01797120,DS,NCT01797120-0141,3,DISPOSITION EVENT,FULVESTRANT,PROGRESSIVE DISEASE,PROGRESSIVE DISEASE,INDUCTION,2021-08-10,86
NCT01797120,DS,NCT01797120-0141,4,DISPOSITION EVENT,PLACEBO,PROGRESSIVE DISEASE,PROGRESSIVE DISEASE,INDUCTION,2021-08-10,86
NCT01797120,DS,NCT01797120-0141,5,DISPOSITION EVENT,STUDY PARTICIPATION,DEATH,DEATH,FOLLOW-UP,2021-10-08,145
NCT01797120,DS,NCT01797120-0142,1,PROTOCOL MILESTONE,,INFORMED CONSENT OBTAINED,INFORMED CONSENT OBTAINED,,2021-07-14,-13
NCT01797120,DS,NCT01797120-0142,2,PROTOCOL MILESTONE,,RANDOMIZED,RANDOMIZED,,2021-07-27,1
NCT01797120,DS,NCT01797120-0142,3,DISPOSITION EVENT,FULVESTRANT,PROGRESSIVE DISEASE,PROGRESSIVE DISEASE,INDUCTION,2021-10-20,86
NCT01797120,DS,NCT01797120-0142,4,DISPOSITION EVENT,PLACEBO,PROGRESSIVE DISEASE,PROGRESSIVE DISEASE,INDUCTION,2021-10-20,86
NCT01797120,DS,NCT01797120-0142,5,DISPOSITION EVENT,STUDY PARTICIPATION,DEATH,DEATH,FOLLOW-UP,2023-04-04,617
NCT01797120,DS,NCT01797120-0143,1,PROTOCOL MILESTONE,,INFORMED CONSENT OBTAINED,INFORMED CONSENT OBTAINED,,2022-03-12,-28
NCT01797120,DS,NCT01797120-0143,2,PROTOCOL MILESTONE,,RANDOMIZED,RANDOMIZED,,2022-04-09,1
NCT01797120,DS,NCT01797120-0143,3,DISPOSITION EVENT,FULVESTRANT,PROGRESSIVE DISEASE,PROGRESSIVE DISEASE,INDUCTION,2022-09-25,170
NCT01797120,DS,NCT01797120-0143,4,DISPOSITION EVENT,EVEROLIMUS,PROGRESSIVE DISEASE,PROGRESSIVE DISEASE,INDUCTION,2022-09-25,170
NCT01797120,DS,NCT01797120-0143,5,DISPOSITION EVENT,STUDY PARTICIPATION,LOST TO FOLLOW-UP,LOST TO FOLLOW-UP,FOLLOW-UP,2022-12-04,240
NCT01797120,DS,NCT01797120-0144,1,PROTOCOL MILESTONE,,INFORMED CONSENT OBTAINED,INFORMED CONSENT OBTAINED,,2021-05-02,-18
NCT01797120,DS,NCT01797120-0144,2,PROTOCOL MILESTONE,,RANDOMIZED,RANDOMIZED,,2021-05-20,1
NCT01797120,DS,NCT01797120-0144,3,DISPOSITION EVENT,FULVESTRANT,LOST TO FOLLOW-UP,LOST TO FOLLOW-UP,INDUCTION,2021-09-12,116
NCT01797120,DS,NCT01797120-0144,4,DISPOSITION EVENT,EVEROLIMUS,LOST TO FOLLOW-UP,LOST TO FOLLOW-UP,INDUCTION,2021-09-12,116
NCT01797120,DS,NCT01797120-0144,5,DISPOSITION EVENT,STUDY PARTICIPATION,LOST TO FOLLOW-UP,LOST TO FOLLOW-UP,FOLLOW-UP,2021-11-01,166
NCT01797120,DS,NCT01797120-0145,1,PROTOCOL MILESTONE,,INFORMED CONSENT OBTAINED,INFORMED CONSENT OBTAINED,,2020-12-11,-25
NCT01797120,DS,NCT01797120-0145,2,PROTOCOL MILESTONE,,RANDOMIZED,RANDOMIZED,,2021-01-05,1
NCT01797120,DS,NCT01797120-0145,3,DISPOSITION EVENT,FULVESTRANT,PROGRESSIVE DISEASE,PROGRESSIVE DISEASE,CONTINUATION,2022-03-02,422
NCT01797120,DS,NCT01797120-0145,4,DISPOSITION EVENT,EVEROLIMUS,PROGRESSIVE DISEASE,PROGRESSIVE DISEASE,CONTINUATION,2022-03-02,422
NCT01797120,DS,NCT01797120-0145,5,DISPOSITION EVENT,STUDY PARTICIPATION,DEATH,DEATH,FOLLOW-UP,2022-06-11,523
NCT01797120,DS,NCT01797120-0146,1,PROTOCOL MILESTONE,,INFORMED CONSENT OBTAINED,INFORMED CONSENT OBTAINED,,2022-02-14,-14
NCT01797120,DS,NCT01797120-0146,2,PROTOCOL MILESTONE,,RANDOMIZED,RANDOMIZED,,2022-02-28,1
NCT01797120,DS,NCT01797120-0146,3,DISPOSITION EVENT,FULVESTRANT,PROGRESSIVE DISEASE,PROGRESSIVE DISEASE,INDUCTION,2022-08-16,170
NCT01797120,DS,NCT01797120-0146,4,DISPOSITION EVENT,EVEROLIMUS,PROGRESSIVE DISEASE,PROGRESSIVE DISEASE,INDUCTION,2022-08-16,170
NCT01797120,DS,NCT01797120-0146,5,DISPOSITION EVENT,STUDY PARTICIPATION,LOST TO FOLLOW-UP,LOST TO FOLLOW-UP,FOLLOW-UP,2022-10-07,222
NCT01797120,DS,NCT01797120-0147,1,PROTOCOL MILESTONE,,INFORMED CONSENT OBTAINED,INFORMED CONSENT OBTAINED,,2021-12-07,-8
NCT01797120,DS,NCT01797120-0147,2,PROTOCOL MILESTONE,,RANDOMIZED,RANDOMIZED,,2021-12-15,1
NCT01797120,DS,NCT01797120-0147,3,DISPOSITION EVENT,FULVESTRANT,PROGRESSIVE DISEASE,PROGRESSIVE DISEASE,INDUCTION,2022-03-10,86
NCT01797120,DS,NCT01797120-0147,4,DISPOSITION EVENT,PLACEBO,PROGRESSIVE DISEASE,PROGRESSIVE DISEASE,INDUCTION,2022-03-10,86
NCT01797120,DS,NCT01797120-0147,5,DISPOSITION EVENT,STUDY PARTICIPATION,DEATH,DEATH,FOLLOW-UP,2022-07-03,201
NCT01797120,DS,NCT01797120-0148,1,PROTOCOL MILESTONE,,INFORMED CONSENT OBTAINED,INFORMED CONSENT OBTAINED,,2021-09-24,-16
NCT01797120,DS,NCT01797120-0148,2,PROTOCOL MILESTONE,,RANDOMIZED,RANDOMIZED,,2021-10-10,1
NCT01797120,DS,NCT01797120-0148,3,DISPOSITION EVENT,FULVESTRANT,PROGRESSIVE DISEASE,PROGRESSIVE DISEASE,INDUCTION,2022-03-28,170
NCT01797120,DS,NCT01797120-0148,4,DISPOSITION EVENT,PLACEBO,PROGRESSIVE DISEASE,PROGRESSIVE DISEASE,INDUCTION,2022-03-28,170
NCT01797120,DS,NCT01797120-0148,5,DISPOSITION EVENT,STUDY PARTICIPATION,DEATH,DEATH,FOLLOW-UP,2022-06-28,262
NCT01797120,DS,NCT01797120-0149,1,PROTOCOL MILESTONE,,INFORMED CONSENT OBTAINED,INFORMED CONSENT OBTAINED,,2022-08-01,-9
NCT01797120,DS,NCT01797120-0149,2,PROTOCOL MILESTONE,,RANDOMIZED,RANDOMIZED,,2022-08-10,1
NCT01797120,DS,NCT01797120-0149,3,DISPOSITION EVENT,FULVESTRANT,PROGRESSIVE DISEASE,PROGRESSIVE DISEASE,CONTINUATION,2023-10-05,422
NCT01797120,DS,NCT01797120-0149,4,DISPOSITION EVENT,EVEROLIMUS,PROGRESSIVE DISEASE,PROGRESSIVE DISEASE,CONTINUATION,2023-10-05,422
NCT01797120,DS,NCT01797120-0149,5,DISPOSITION EVENT,STUDY PARTICIPATION,LOST TO FOLLOW-UP,LOST TO FOLLOW-UP,FOLLOW-UP,2023-12-22,500
NCT01797120,DS,NCT01797120-0150,1,PROTOCOL MILESTONE,,INFORMED CONSENT OBTAINED,INFORMED CONSENT OBTAINED,,2022-02-13,-25
NCT01797120,DS,NCT01797120-0150,2,PROTOCOL MILESTONE,,RANDOMIZED,RANDOMIZED,,2022-03-10,1
NCT01797120,DS,NCT01797120-0150,3,DISPOSITION EVENT,FULVESTRANT,PROGRESSIVE DISEASE,PROGRESSIVE DISEASE,CONTINUATION,2023-02-10,338
NCT01797120,DS,NCT01797120-0150,4,DISPOSITION EVENT,PLACEBO,PROGRESSIVE DISEASE,PROGRESSIVE DISEASE,CONTINUATION,2023-02-10,338
NCT01797120,DS,NCT01797120-0150,5,DISPOSITION EVENT,STUDY PARTICIPATION,DEATH,DEATH,FOLLOW-UP,2024-09-09,915
NCT01797120,DS,NCT01797120-0151,1,PROTOCOL MILESTONE,,INFORMED CONSENT OBTAINED,INFORMED CONSENT OBTAINED,,2021-07-18,-21
NCT01797120,DS,NCT01797120-0151,2,PROTOCOL MILESTONE,,RANDOMIZED,RANDOMIZED,,2021-08-08,1
NCT01797120,DS,NCT01797120-0151,3,DISPOSITION EVENT,FULVESTRANT,PROGRESSIVE DISEASE,PROGRESSIVE DISEASE,CONTINUATION,2022-12-26,506
NCT01797120,DS,NCT01797120-0151,4,DISPOSITION EVENT,PLACEBO,PROGRESSIVE DISEASE,PROGRESSIVE DISEASE,CONTINUATION,2022-12-26,506
NCT01797120,DS,NCT01797120-0151,5,DISPOSITION EVENT,STUDY PARTICIPATION,DEATH,DEATH,FOLLOW-UP,2023-06-25,687
NCT01797120,DS,NCT01797120-0152,1,PROTOCOL MILESTONE,,INFORMED CONSENT OBTAINED,INFORMED CONSENT OBTAINED,,2021-12-28,-12
NCT01797120,DS,NCT01797120-0152,2,PROTOCOL MILESTONE,,RANDOMIZED,RANDOMIZED,,2022-01-09,1
NCT01797120,DS,NCT01797120-0152,3,DISPOSITION EVENT,FULVESTRANT,PROGRESSIVE DISEASE,PROGRESSIVE DISEASE,INDUCTION,2022-06-27,170
NCT01797120,DS,NCT01797120-0152,4,DISPOSITION EVENT,PLACEBO,PROGRESSIVE DISEASE,PROGRESSIVE DISEASE,INDUCTION,2022-06-27,170
NCT01797120,DS,NCT01797120-0152,5,DISPOSITION EVENT,STUDY PARTICIPATION,DEATH,DEATH,FOLLOW-UP,2022-10-24,289
NCT01797120,DS,NCT01797120-0153,1,PROTOCOL MILESTONE,,INFORMED CONSENT OBTAINED,INFORMED CONSENT OBTAINED,,2021-10-07,-11
NCT01797120,DS,NCT01797120-0153,2,PROTOCOL MILESTONE,,RANDOMIZED,RANDOMIZED,,2021-10-18,1
NCT01797120,DS,NCT01797120-0153,3,DISPOSITION EVENT,FULVESTRANT,PROGRESSIVE DISEASE,PROGRESSIVE DISEASE,INDUCTION,2022-04-05,170
NCT01797120,DS,NCT01797120-0153,4,DISPOSITION EVENT,EVEROLIMUS,PROGRESSIVE DISEASE,PROGRESSIVE DISEASE,INDUCTION,2022-04-05,170
NCT01797120,DS,NCT01797120-0153,5,DISPOSITION EVENT,STUDY PARTICIPATION,DEATH,DEATH,FOLLOW-UP,2022-10-31,379
NCT01797120,DS,NCT01797120-0154,1,PROTOCOL MILESTONE,,INFORMED CONSENT OBTAINED,INFORMED CONSENT OBTAINED,,2022-06-23,-25
NCT01797120,DS,NCT01797120-0154,2,PROTOCOL MILESTONE,,RANDOMIZED,RANDOMIZED,,2022-07-18,1
NCT01797120,DS,NCT01797120-0154,3,DISPOSITION EVENT,FULVESTRANT,PROGRESSIVE DISEASE,PROGRESSIVE DISEASE,CONTINUATION,2023-06-20,338
NCT01797120,DS,NCT01797120-0154,4,DISPOSITION EVENT,EVEROLIMUS,PROGRESSIVE DISEASE,PROGRESSIVE DISEASE,CONTINUATION,2023-06-20,338
NCT01797120,DS,NCT01797120-0154,5,DISPOSITION EVENT,STUDY PARTICIPATION,DEATH,DEATH,FOLLOW-UP,2023-11-11,482
NCT01797120,DS,NCT01797120-0155,1,PROTOCOL MILESTONE,,INFORMED CONSENT OBTAINED,INFORMED CONSENT OBTAINED,,2022-10-12,-21
NCT01797120,DS,NCT01797120-0155,2,PROTOCOL MILESTONE,,RANDOMIZED,RANDOMIZED,,2022-11-02,1
NCT01797120,DS,NCT01797120-0155,3,DISPOSITION EVENT,FULVESTRANT,PROGRESSIVE DISEASE,PROGRESSIVE DISEASE,INDUCTION,2023-04-20,170
NCT01797120,DS,NCT01797120-0155,4,DISPOSITION EVENT,PLACEBO,PROGRESSIVE DISEASE,PROGRESSIVE DISEASE,INDUCTION,2023-04-20,170
NCT01797120,DS,NCT01797120-0155,5,DISPOSITION EVENT,STUDY PARTICIPATION,DEATH,DEATH,FOLLOW-UP,2023-07-19,260
NCT01797120,DS,NCT01797120-0156,1,PROTOCOL MILESTONE,,INFORMED CONSENT OBTAINED,INFORMED CONSENT OBTAINED,,2022-02-17,-25
NCT01797120,DS,NCT01797120-0156,2,PROTOCOL MILESTONE,,RANDOMIZED,RANDOMIZED,,2022-03-14,1
NCT01797120,DS,NCT01797120-0156,3,DISPOSITION EVENT,FULVESTRANT,WITHDRAWAL BY SUBJECT,WITHDRAWAL BY SUBJECT,INDUCTION,2022-09-30,201
NCT01797120,DS,NCT01797120-0156,4,DISPOSITION EVENT,EVEROLIMUS,WITHDRAWAL BY SUBJECT,WITHDRAWAL BY SUBJECT,INDUCTION,2022-09-30,201
NCT01797120,DS,NCT01797120-0156,5,DISPOSITION EVENT,STUDY PARTICIPATION,WITHDRAWAL BY SUBJECT,WITHDRAWAL BY SUBJECT,FOLLOW-UP,2022-09-30,201
NCT01797120,DS,NCT01797120-0157,1,PROTOCOL MILESTONE,,INFORMED CONSENT OBTAINED,INFORMED CONSENT OBTAINED,,2022-05-16,-8
NCT01797120,DS,NCT01797120-0157,2,PROTOCOL MILESTONE,,RANDOMIZED,RANDOMIZED,,2022-05-24,1
NCT01797120,DS,NCT01797120-0157,3,DISPOSITION EVENT,FULVESTRANT,PROGRESSIVE DISEASE,PROGRESSIVE DISEASE,CONTINUATION,2023-10-11,506
NCT01797120,DS,NCT01797120-0157,4,DISPOSITION EVENT,PLACEBO,PROGRESSIVE DISEASE,PROGRESSIVE DISEASE,CONTINUATION,2023-10-11,506
NCT01797120,DS,NCT01797120-0157,5,DISPOSITION EVENT,STUDY PARTICIPATION,DEATH,DEATH,FOLLOW-UP,2024-05-30,738
NCT01797120,DS,NCT01797120-0158,1,PROTOCOL MILESTONE,,INFORMED CONSENT OBTAINED,INFORMED CONSENT OBTAINED,,2022-03-07,-19
NCT01797120,DS,NCT01797120-0158,2,PROTOCOL MILESTONE,,RANDOMIZED,RANDOMIZED,,2022-03-26,1
NCT01797120,DS,NCT01797120-0158,3,DISPOSITION EVENT,FULVESTRANT,PROGRESSIVE DISEASE,PROGRESSIVE DISEASE,CONTINUATION,2023-02-26,338
NCT01797120,DS,NCT01797120-0158,4,DISPOSITION EVENT,PLACEBO,PROGRESSIVE DISEASE,PROGRESSIVE DISEASE,CONTINUATION,2023-02-26,338
NCT01797120,DS,NCT01797120-0158,5,DISPOSITION EVENT,STUDY PARTICIPATION,DEATH,DEATH,FOLLOW-UP,2023-08-16,509
NCT01797120,DS,NCT01797120-0159,1,PROTOCOL MILESTONE,,INFORMED CONSENT OBTAINED,INFORMED CONSENT OBTAINED,,2021-11-16,-7
NCT01797120,DS,NCT01797120-0159,2,PROTOCOL MILESTONE,,RANDOMIZED,RANDOMIZED,,2021-11-23,1
NCT01797120,DS,NCT01797120-0159,3,DISPOSITION EVENT,FULVESTRANT,PROGRESSIVE DISEASE,PROGRESSIVE DISEASE,INDUCTION,2022-08-03,254
NCT01797120,DS,NCT01797120-0159,4,DISPOSITION EVENT,EVEROLIMUS,PROGRESSIVE DISEASE,PROGRESSIVE DISEASE,INDUCTION,2022-08-03,254
NCT01797120,DS,NCT01797120-0159,5,DISPOSITION EVENT,STUDY PARTICIPATION,DEATH,DEATH,FOLLOW-UP,2022-11-30,373
NCT01797120,DS,NCT01797120-0160,1,PROTOCOL MILESTONE,,INFORMED CONSENT OBTAINED,INFORMED CONSENT OBTAINED,,2022-04-20,-16
NCT01797120,DS,NCT01797120-0160,2,PROTOCOL MILESTONE,,RANDOMIZED,RANDOMIZED,,2022-05-06,1
NCT01797120,DS,NCT01797120-0160,3,DISPOSITION EVENT,FULVESTRANT,PROGRESSIVE DISEASE,PROGRESSIVE DISEASE,INDUCTION,2022-10-22,170
NCT01797120,DS,NCT01797120-0160,4,DISPOSITION EVENT,EVEROLIMUS,PROGRESSIVE DISEASE,PROGRESSIVE DISEASE,INDUCTION,2022-10-22,170
NCT01797120,DS,NCT01797120-0160,5,DISPOSITION EVENT,STUDY PARTICIPATION,DEATH,DEATH,FOLLOW-UP,2023-03-26,325
NCT01797120,DS,NCT01797120-0161,1,PROTOCOL MILESTONE,,INFORMED CONSENT OBTAINED,INFORMED CONSENT OBTAINED,,2021-01-31,-23
NCT01797120,DS,NCT01797120-0161,2,PROTOCOL MILESTONE,,RANDOMIZED,RANDOMIZED,,2021-02-23,1
NCT01797120,DS,NCT01797120-0161,3,DISPOSITION EVENT,FULVESTRANT,PROGRESSIVE DISEASE,PROGRESSIVE DISEASE,INDUCTION,2021-08-11,170
NCT01797120,DS,NCT01797120-0161,4,DISPOSITION EVENT,PLACEBO,PROGRESSIVE DISEASE,PROGRESSIVE DISEASE,INDUCTION,2021-08-11,170
NCT01797120,DS,NCT01797120-0161,5,DISPOSITION EVENT,STUDY PARTICIPATION,LOST TO FOLLOW-UP,LOST TO FOLLOW-UP,FOLLOW-UP,2022-01-31,343
NCT01797120,DS,NCT01797120-0162,1,PROTOCOL MILESTONE,,INFORMED CONSENT OBTAINED,INFORMED CONSENT OBTAINED,,2021-03-27,-9
NCT01797120,DS,NCT01797120-0162,2,PROTOCOL MILESTONE,,RANDOMIZED,RANDOMIZED,,2021-04-05,1
NCT01797120,DS,NCT01797120-0162,3,DISPOSITION EVENT,FULVESTRANT,LOST TO FOLLOW-UP,LOST TO FOLLOW-UP,INDUCTION,2021-11-01,211
NCT01797120,DS,NCT01797120-0162,4,DISPOSITION EVENT,PLACEBO,LOST TO FOLLOW-UP,LOST TO FOLLOW-UP,INDUCTION,2021-11-01,211
NCT01797120,DS,NCT01797120-0162,5,DISPOSITION EVENT,STUDY PARTICIPATION,LOST TO FOLLOW-UP,LOST TO FOLLOW-UP,FOLLOW-UP,2021-12-31,271
NCT01797120,DS,NCT01797120-0163,1,PROTOCOL MILESTONE,,INFORMED CONSENT OBTAINED,INFORMED CONSENT OBTAINED,,2021-02-14,-15
NCT01797120,DS,NCT01797120-0163,2,PROTOCOL MILESTONE,,RANDOMIZED,RANDOMIZED,,2021-03-01,1
NCT01797120,DS,NCT01797120-0163,3,DISPOSITION EVENT,FULVESTRANT,PROGRESSIVE DISEASE,PROGRESSIVE DISEASE,INDUCTION,2021-05-25,86
NCT01797120,DS,NCT01797120-0163,4,DISPOSITION EVENT,EVEROLIMUS,PROGRESSIVE DISEASE,PROGRESSIVE DISEASE,INDUCTION,2021-05-25,86
NCT01797120,DS,NCT01797120-0163,5,DISPOSITION EVENT,STUDY PARTICIPATION,DEATH,DEATH,FOLLOW-UP,2023-04-01,762
NCT01797120,DS,NCT01797120-0164,1,PROTOCOL MILESTONE,,INFORMED CONSENT OBTAINED,INFORMED CONSENT OBTAINED,,2021-11-07,-26
NCT01797120,DS,NCT01797120-0164,2,PROTOCOL MILESTONE,,RANDOMIZED,RANDOMIZED,,2021-12-03,1
NCT01797120,DS,NCT01797120-0164,3,DISPOSITION EVENT,FULVESTRANT,PROGRESSIVE DISEASE,PROGRESSIVE DISEASE,INDUCTION,2022-02-26,86
NCT01797120,DS,NCT01797120-0164,4,DISPOSITION EVENT,PLACEBO,PROGRESSIVE DISEASE,PROGRESSIVE DISEASE,INDUCTION,2022-02-26,86
NCT01797120,DS,NCT01797120-0164,5,DISPOSITION EVENT,STUDY PARTICIPATION,LOST TO FOLLOW-UP,LOST TO FOLLOW-UP,FOLLOW-UP,2022-05-10,159
NCT01797120,DS,NCT01797120-0165,1,PROTOCOL MILESTONE,,INFORMED CONSENT OBTAINED,INFORMED CONSENT OBTAINED,,2022-10-12,-17
NCT01797120,DS,NCT01797120-0165,2,PROTOCOL MILESTONE,,RANDOMIZED,RANDOMIZED,,2022-10-29,1
NCT01797120,DS,NCT01797120-0165,3,DISPOSITION EVENT,FULVESTRANT,PROGRESSIVE DISEASE,PROGRESSIVE DISEASE,INDUCTION,2023-04-16,170
NCT01797120,DS,NCT01797120-0165,4,DISPOSITION EVENT,PLACEBO,PROGRESSIVE DISEASE,PROGRESSIVE DISEASE,INDUCTION,2023-04-16,170
NCT01797120,DS,NCT01797120-0165,5,DISPOSITION EVENT,STUDY PARTICIPATION,DEATH,DEATH,FOLLOW-UP,2023-06-10,225
NCT01797120,DS,NCT01797120-0166,1,PROTOCOL MILESTONE,,INFORMED CONSENT OBTAINED,INFORMED CONSENT OBTAINED,,2022-09-06,-23
NCT01797120,DS,NCT01797120-0166,2,PROTOCOL MILESTONE,,RANDOMIZED,RANDOMIZED,,2022-09-29,1
NCT01797120,DS,NCT01797120-0166,3,DISPOSITION EVENT,FULVESTRANT,PROGRESSIVE DISEASE,PROGRESSIVE DISEASE,INDUCTION,2023-03-17,170
NCT01797120,DS,NCT01797120-0166,4,DISPOSITION EVENT,PLACEBO,PROGRESSIVE DISEASE,PROGRESSIVE DISEASE,INDUCTION,2023-03-17,170
NCT01797120,DS,NCT01797120-0166,5,DISPOSITION EVENT,STUDY PARTICIPATION,LOST TO FOLLOW-UP,LOST TO FOLLOW-UP,FOLLOW-UP,2023-06-26,271
NCT01797120,DS,NCT01797120-0167,1,PROTOCOL MILESTONE,,INFORMED CONSENT OBTAINED,INFORMED CONSENT OBTAINED,,2021-06-05,-8
NCT01797120,DS,NCT01797120-0167,2,PROTOCOL MILESTONE,,RANDOMIZED,RANDOMIZED,,2021-06-13,1
NCT01797120,DS,NCT01797120-0167,3,DISPOSITION EVENT,FULVESTRANT,PROGRESSIVE DISEASE,PROGRESSIVE DISEASE,CONTINUATION,2022-05-16,338
NCT01797120,DS,NCT01797120-0167,4,DISPOSITION EVENT,EVEROLIMUS,PROGRESSIVE DISEASE,PROGRESSIVE DISEASE,CONTINUATION,2022-05-16,338
NCT01797120,DS,NCT01797120-0167,5,DISPOSITION EVENT,STUDY PARTICIPATION,DEATH,DEATH,FOLLOW-UP,2022-07-30,413
NCT01797120,DS,NCT01797120-0168,1,PROTOCOL MILESTONE,,INFORMED CONSENT OBTAINED,INFORMED CONSENT OBTAINED,,2022-07-18,-7
NCT01797120,DS,NCT01797120-0168,2,PROTOCOL MILESTONE,,RANDOMIZED,RANDOMIZED,,2022-07-25,1
NCT01797120,DS,NCT01797120-0168,3,DISPOSITION EVENT,FULVESTRANT,PROGRESSIVE DISEASE,PROGRESSIVE DISEASE,INDUCTION,2023-01-10,170
NCT01797120,DS,NCT01797120-0168,4,DISPOSITION EVENT,PLACEBO,PROGRESSIVE DISEASE,PROGRESSIVE DISEASE,INDUCTION,2023-01-10,170
NCT01797120,DS,NCT01797120-0168,5,DISPOSITION EVENT,STUDY PARTICIPATION,DEATH,DEATH,FOLLOW-UP,2023-06-08,319
NCT01797120,DS,NCT01797120-0169,1,PROTOCOL MILESTONE,,INFORMED CONSENT OBTAINED,INFORMED CONSENT OBTAINED,,2021-04-05,-12
NCT01797120,DS,NCT01797120-0169,2,PROTOCOL MILESTONE,,RANDOMIZED,RANDOMIZED,,2021-04-17,1
NCT01797120,DS,NCT01797120-0169,3,DISPOSITION EVENT,FULVESTRANT,PROGRESSIVE DISEASE,PROGRESSIVE DISEASE,INDUCTION,2021-07-11,86
NCT01797120,DS,NCT01797120-0169,4,DISPOSITION EVENT,PLACEBO,PROGRESSIVE DISEASE,PROGRESSIVE DISEASE,INDUCTION,2021-07-11,86
NCT01797120,DS,NCT01797120-0169,5,DISPOSITION EVENT,STUDY PARTICIPATION,DEATH,DEATH,FOLLOW-UP,2022-02-10,300
NCT01797120,DS,NCT01797120-0170,1,PROTOCOL MILESTONE,,INFORMED CONSENT OBTAINED,INFORMED CONSENT OBTAINED,,2021-07-12,-9
NCT01797120,DS,NCT01797120-0170,2,PROTOCOL MILESTONE,,RANDOMIZED,RANDOMIZED,,2021-07-21,1
NCT01797120,DS,NCT01797120-0170,3,DISPOSITION EVENT,FULVESTRANT,PROGRESSIVE DISEASE,PROGRESSIVE DISEASE,INDUCTION,2021-10-14,86
NCT01797120,DS,NCT01797120-0170,4,DISPOSITION EVENT,PLACEBO,PROGRESSIVE DISEASE,PROGRESSIVE DISEASE,INDUCTION,2021-10-14,86
NCT01797120,DS,NCT01797120-0170,5,DISPOSITION EVENT,STUDY PARTICIPATION,DEATH,DEATH,FOLLOW-UP,2021-11-14,117
NCT01797120,DS,NCT01797120-0171,1,PROTOCOL MILESTONE,,INFORMED CONSENT OBTAINED,INFORMED CONSENT OBTAINED,,2021-10-06,-22
NCT01797120,DS,NCT01797120-0171,2,PROTOCOL MILESTONE,,RANDOMIZED,RANDOMIZED,,2021-10-28,1
NCT01797120,DS,NCT01797120-0171,3,DISPOSITION EVENT,FULVESTRANT,PROGRESSIVE DISEASE,PROGRESSIVE DISEASE,CONTINUATION,2022-12-23,422
NCT01797120,DS,NCT01797120-0171,4,DISPOSITION EVENT,EVEROLIMUS,PROGRESSIVE DISEASE,PROGRESSIVE DISEASE,CONTINUATION,2022-12-23,422
NCT01797120,DS,NCT01797120-0171,5,DISPOSITION EVENT,STUDY PARTICIPATION,LOST TO FOLLOW-UP,LOST TO FOLLOW-UP,FOLLOW-UP,2023-03-22,511
NCT01797120,DS,NCT01797120-0172,1,PROTOCOL MILESTONE,,INFORMED CONSENT OBTAINED,INFORMED CONSENT OBTAINED,,2022-06-25,-10
NCT01797120,DS,NCT01797120-0172,2,PROTOCOL MILESTONE,,RANDOMIZED,RANDOMIZED,,2022-07-05,1
NCT01797120,DS,NCT01797120-0172,3,DISPOSITION EVENT,FULVESTRANT,PROGRESSIVE DISEASE,PROGRESSIVE DISEASE,CONTINUATION,2023-11-22,506
NCT01797120,DS,NCT01797120-0172,4,DISPOSITION EVENT,EVEROLIMUS,PROGRESSIVE DISEASE,PROGRESSIVE DISEASE,CONTINUATION,2023-11-22,506
NCT01797120,DS,NCT01797120-0172,5,DISPOSITION EVENT,STUDY PARTICIPATION,DEATH,DEATH,FOLLOW-UP,2024-03-06,611
NCT01797120,DS,NCT01797120-0173,1,PROTOCOL MILESTONE,,INFORMED CONSENT OBTAINED,INFORMED CONSENT OBTAINED,,2022-10-21,-21
NCT01797120,DS,NCT01797120-0173,2,PROTOCOL MILESTONE,,RANDOMIZED,RANDOMIZED,,2022-11-11,1
NCT01797120,DS,NCT01797120-0173,3,DISPOSITION EVENT,FULVESTRANT,PROGRESSIVE DISEASE,PROGRESSIVE DISEASE,CONTINUATION,2024-01-06,422
NCT01797120,DS,NCT01797120-0173,4,DISPOSITION EVENT,EVEROLIMUS,PROGRESSIVE DISEASE,PROGRESSIVE DISEASE,CONTINUATION,2024-01-06,422
NCT01797120,DS,NCT01797120-0173,5,DISPOSITION EVENT,STUDY PARTICIPATION,DEATH,DEATH,FOLLOW-UP,2025-08-20,1014
NCT01797120,DS,NCT01797120-0174,1,PROTOCOL MILESTONE,,INFORMED CONSENT OBTAINED,INFORMED CONSENT OBTAINED,,2022-09-29,-12
NCT01797120,DS,NCT01797120-0174,2,PROTOCOL MILESTONE,,RANDOMIZED,RANDOMIZED,,2022-10-11,1
NCT01797120,DS,NCT01797120-0174,3,DISPOSITION EVENT,FULVESTRANT,PROGRESSIVE DISEASE,PROGRESSIVE DISEASE,INDUCTION,2023-03-29,170
NCT01797120,DS,NCT01797120-0174,4,DISPOSITION EVENT,EVEROLIMUS,PROGRESSIVE DISEASE,PROGRESSIVE DISEASE,INDUCTION,2023-03-29,170
NCT01797120,DS,NCT01797120-0174,5,DISPOSITION EVENT,STUDY PARTICIPATION,DEATH,DEATH,FOLLOW-UP,2023-09-03,328
NCT01797120,DS,NCT01797120-0175,1,PROTOCOL MILESTONE,,INFORMED CONSENT OBTAINED,INFORMED CONSENT OBTAINED,,2020-12-27,-18
NCT01797120,DS,NCT01797120-0175,2,PROTOCOL MILESTONE,,RANDOMIZED,RANDOMIZED,,2021-01-14,1
NCT01797120,DS,NCT01797120-0175,3,DISPOSITION EVENT,FULVESTRANT,PROGRESSIVE DISEASE,PROGRESSIVE DISEASE,INDUCTION,2021-04-09,86
NCT01797120,DS,NCT01797120-0175,4,DISPOSITION EVENT,PLACEBO,PROGRESSIVE DISEASE,PROGRESSIVE DISEASE,INDUCTION,2021-04-09,86
NCT01797120,DS,NCT01797120-0175,5,DISPOSITION EVENT,STUDY PARTICIPATION,DEATH,DEATH,FOLLOW-UP,2021-08-04,203
NCT01797120,DS,NCT01797120-0176,1,PROTOCOL MILESTONE,,INFORMED CONSENT OBTAINED,INFORMED CONSENT OBTAINED,,2022-11-26,-26
NCT01797120,DS,NCT01797120-0176,2,PROTOCOL MILESTONE,,RANDOMIZED,RANDOMIZED,,2022-12-22,1
NCT01797120,DS,NCT01797120-0176,3,DISPOSITION EVENT,FULVESTRANT,PROGRESSIVE DISEASE,PROGRESSIVE DISEASE,CONTINUATION,2024-02-16,422
NCT01797120,DS,NCT01797120-0176,4,DISPOSITION EVENT,PLACEBO,PROGRESSIVE DISEASE,PROGRESSIVE DISEASE,CONTINUATION,2024-02-16,422
NCT01797120,DS,NCT01797120-0176,5,DISPOSITION EVENT,STUDY PARTICIPATION,LOST TO FOLLOW-UP,LOST TO FOLLOW-UP,FOLLOW-UP,2024-04-11,477
NCT01797120,DS,NCT01797120-0177,1,PROTOCOL MILESTONE,,INFORMED CONSENT OBTAINED,INFORMED CONSENT OBTAINED,,2022-06-06,-13
NCT01797120,DS,NCT01797120-0177,2,PROTOCOL MILESTONE,,RANDOMIZED,RANDOMIZED,,2022-06-19,1
NCT01797120,DS,NCT01797120-0177,3,DISPOSITION EVENT,FULVESTRANT,LOST TO FOLLOW-UP,LOST TO FOLLOW-UP,CONTINUATION,2024-01-29,590
NCT01797120,DS,NCT01797120-0177,4,DISPOSITION EVENT,PLACEBO,LOST TO FOLLOW-UP,LOST TO FOLLOW-UP,CONTINUATION,2024-01-29,590
NCT01797120,DS,NCT01797120-0177,5,DISPOSITION EVENT,STUDY PARTICIPATION,LOST TO FOLLOW-UP,LOST TO FOLLOW-UP,FOLLOW-UP,2024-05-09,691
NCT01797120,DS,NCT01797120-0178,1,PROTOCOL MILESTONE,,INFORMED CONSENT OBTAINED,INFORMED CONSENT OBTAINED,,2022-04-23,-27
NCT01797120,DS,NCT01797120-0178,2,PROTOCOL MILESTONE,,RANDOMIZED,RANDOMIZED,,2022-05-20,1
NCT01797120,DS,NCT01797120-0178,3,DISPOSITION EVENT,FULVESTRANT,PROGRESSIVE DISEASE,PROGRESSIVE DISEASE,CONTINUATION,2023-04-22,338
NCT01797120,DS,NCT01797120-0178,4,DISPOSITION EVENT,EVEROLIMUS,PROGRESSIVE DISEASE,PROGRESSIVE DISEASE,CONTINUATION,2023-04-22,338
NCT01797120,DS,NCT01797120-0178,5,DISPOSITION EVENT,STUDY PARTICIPATION,DEATH,DEATH,FOLLOW-UP,2023-06-14,391
NCT01797120,DS,NCT01797120-0179,1,PROTOCOL MILESTONE,,INFORMED CONSENT OBTAINED,INFORMED CONSENT OBTAINED,,2021-07-16,-13
NCT01797120,DS,NCT01797120-0179,2,PROTOCOL MILESTONE,,RANDOMIZED,RANDOMIZED,,2021-07-29,1
NCT01797120,DS,NCT01797120-0179,3,DISPOSITION EVENT,FULVESTRANT,PROGRESSIVE DISEASE,PROGRESSIVE DISEASE,CONTINUATION,2022-12-16,506
NCT01797120,DS,NCT01797120-0179,4,DISPOSITION EVENT,EVEROLIMUS,PROGRESSIVE DISEASE,PROGRESSIVE DISEASE,CONTINUATION,2022-12-16,506
NCT01797120,DS,NCT01797120-0179,5,DISPOSITION EVENT,STUDY PARTICIPATION,DEATH,DEATH,FOLLOW-UP,2023-02-04,556
NCT01797120,DS,NCT01797120-0180,1,PROTOCOL MILESTONE,,INFORMED CONSENT OBTAINED,INFORMED CONSENT OBTAINED,,2022-03-06,-26
NCT01797120,DS,NCT01797120-0180,2,PROTOCOL MILESTONE,,RANDOMIZED,RANDOMIZED,,2022-04-01,1
NCT01797120,DS,NCT01797120-0180,3,DISPOSITION EVENT,FULVESTRANT,PROGRESSIVE DISEASE,PROGRESSIVE DISEASE,CONTINUATION,2024-02-03,674
NCT01797120,DS,NCT01797120-0180,4,DISPOSITION EVENT,EVEROLIMUS,PROGRESSIVE DISEASE,PROGRESSIVE DISEASE,CONTINUATION,2024-02-03,674
NCT01797120,DS,NCT01797120-0180,5,DISPOSITION EVENT,STUDY PARTICIPATION,DEATH,DEATH,FOLLOW-UP,2024-04-15,746
NCT01797120,DS,NCT01797120-0181,1,PROTOCOL MILESTONE,,INFORMED CONSENT OBTAINED,INFORMED CONSENT OBTAINED,,2022-04-01,-13
NCT01797120,DS,NCT01797120-0181,2,PROTOCOL MILESTONE,,RANDOMIZED,RANDOMIZED,,2022-04-14,1
NCT01797120,DS,NCT01797120-0181,3,DISPOSITION EVENT,FULVESTRANT,LOST TO FOLLOW-UP,LOST TO FOLLOW-UP,CONTINUATION,2023-11-07,573
NCT01797120,DS,NCT01797120-0181,4,DISPOSITION EVENT,PLACEBO,LOST TO FOLLOW-UP,LOST TO FOLLOW-UP,CONTINUATION,2023-11-07,573
NCT01797120,DS,NCT01797120-0181,5,DISPOSITION EVENT,STUDY PARTICIPATION,LOST TO FOLLOW-UP,LOST TO FOLLOW-UP,FOLLOW-UP,2024-01-02,629
NCT01797120,DS,NCT01797120-0182,1,PROTOCOL MILESTONE,,INFORMED CONSENT OBTAINED,INFORMED CONSENT OBTAINED,,2022-04-10,-9
NCT01797120,DS,NCT01797120-0182,2,PROTOCOL MILESTONE,,RANDOMIZED,RANDOMIZED,,2022-04-19,1
NCT01797120,DS,NCT01797120-0182,3,DISPOSITION EVENT,FULVESTRANT,LOST TO FOLLOW-UP,LOST TO FOLLOW-UP,INDUCTION,2023-03-02,318
NCT01797120,DS,NCT01797120-0182,4,DISPOSITION EVENT,EVEROLIMUS,LOST TO FOLLOW-UP,LOST TO FOLLOW-UP,INDUCTION,2023-03-02,318
NCT01797120,DS,NCT01797120-0182,5,DISPOSITION EVENT,STUDY PARTICIPATION,LOST TO FOLLOW-UP,LOST TO FOLLOW-UP,FOLLOW-UP,2023-06-05,413
NCT01797120,DS,NCT01797120-0183,1,PROTOCOL MILESTONE,,INFORMED CONSENT OBTAINED,INFORMED CONSENT OBTAINED,,2022-07-14,-13
NCT01797120,DS,NCT01797120-0183,2,PROTOCOL MILESTONE,,RANDOMIZED,RANDOMIZED,,2022-07-27,1
NCT01797120,DS,NCT01797120-0183,3,DISPOSITION EVENT,FULVESTRANT,LOST TO FOLLOW-UP,LOST TO FOLLOW-UP,CONTINUATION,2024-03-12,595
NCT01797120,DS,NCT01797120-0183,4,DISPOSITION EVENT,PLACEBO,LOST TO FOLLOW-UP,LOST TO FOLLOW-UP,CONTINUATION,2024-03-12,595
NCT01797120,DS,NCT01797120-0183,5,DISPOSITION EVENT,STUDY PARTICIPATION,LOST TO FOLLOW-UP,LOST TO FOLLOW-UP,FOLLOW-UP,2024-06-18,693
NCT01797120,DS,NCT01797120-0184,1,PROTOCOL MILESTONE,,INFORMED CONSENT OBTAINED,INFORMED CONSENT OBTAINED,,2022-01-24,-12
NCT01797120,DS,NCT01797120-0184,2,PROTOCOL MILESTONE,,RANDOMIZED,RANDOMIZED,,2022-02-05,1
NCT01797120,DS,NCT01797120-0184,3,DISPOSITION EVENT,FULVESTRANT,PROGRESSIVE DISEASE,PROGRESSIVE DISEASE,INDUCTION,2022-07-24,170
NCT01797120,DS,NCT01797120-0184,4,DISPOSITION EVENT,PLACEBO,PROGRESSIVE DISEASE,PROGRESSIVE DISEASE,INDUCTION,2022-07-24,170
NCT01797120,DS,NCT01797120-0184,5,DISPOSITION EVENT,STUDY PARTICIPATION,DEATH,DEATH,FOLLOW-UP,2023-04-12,432
NCT01797120,DS,NCT01797120-0185,1,PROTOCOL MILESTONE,,INFORMED CONSENT OBTAINED,INFORMED CONSENT OBTAINED,,2021-02-14,-12
NCT01797120,DS,NCT01797120-0185,2,PROTOCOL MILESTONE,,RANDOMIZED,RANDOMIZED,,2021-02-26,1
NCT01797120,DS,NCT01797120-0185,3,DISPOSITION EVENT,FULVESTRANT,PROGRESSIVE DISEASE,PROGRESSIVE DISEASE,INDUCTION,2021-11-06,254
NCT01797120,DS,NCT01797120-0185,4,DISPOSITION EVENT,PLACEBO,PROGRESSIVE DISEASE,PROGRESSIVE DISEASE,INDUCTION,2021-11-06,254
NCT01797120,DS,NCT01797120-0185,5,DISPOSITION EVENT,STUDY PARTICIPATION,DEATH,DEATH,FOLLOW-UP,2021-12-22,300
NCT01797120,DS,NCT01797120-0186,1,PROTOCOL MILESTONE,,INFORMED CONSENT OBTAINED,INFORMED CONSENT OBTAINED,,2022-10-06,-20
NCT01797120,DS,NCT01797120-0186,2,PROTOCOL MILESTONE,,RANDOMIZED,RANDOMIZED,,2022-10-26,1
NCT01797120,DS,NCT01797120-0186,3,DISPOSITION EVENT,FULVESTRANT,PROGRESSIVE DISEASE,PROGRESSIVE DISEASE,CONTINUATION,2023-09-28,338
NCT01797120,DS,NCT01797120-0186,4,DISPOSITION EVENT,EVEROLIMUS,PROGRESSIVE DISEASE,PROGRESSIVE DISEASE,CONTINUATION,2023-09-28,338
NCT01797120,DS,NCT01797120-0186,5,DISPOSITION EVENT,STUDY PARTICIPATION,DEATH,DEATH,FOLLOW-UP,2024-10-04,710
NCT01797120,DS,NCT01797120-0187,1,PROTOCOL MILESTONE,,INFORMED CONSENT OBTAINED,INFORMED CONSENT OBTAINED,,2021-09-22,-16
NCT01797120,DS,NCT01797120-0187,2,PROTOCOL MILESTONE,,RANDOMIZED,RANDOMIZED,,2021-10-08,1
NCT01797120,DS,NCT01797120-0187,3,DISPOSITION EVENT,FULVESTRANT,PROGRESSIVE DISEASE,PROGRESSIVE DISEASE,CONTINUATION,2025-06-14,1346
NCT01797120,DS,NCT01797120-0187,4,DISPOSITION EVENT,EVEROLIMUS,PROGRESSIVE DISEASE,PROGRESSIVE DISEASE,CONTINUATION,2025-06-14,1346
NCT01797120,DS,NCT01797120-0187,5,DISPOSITION EVENT,STUDY PARTICIPATION,DEATH,DEATH,FOLLOW-UP,2026-10-30,1849
NCT01797120,DS,NCT01797120-0188,1,PROTOCOL MILESTONE,,INFORMED CONSENT OBTAINED,INFORMED CONSENT OBTAINED,,2020-12-25,-11
NCT01797120,DS,NCT01797120-0188,2,PROTOCOL MILESTONE,,RANDOMIZED,RANDOMIZED,,2021-01-05,1
NCT01797120,DS,NCT01797120-0188,3,DISPOSITION EVENT,FULVESTRANT,PROGRESSIVE DISEASE,PROGRESSIVE DISEASE,CONTINUATION,2022-11-09,674
NCT01797120,DS,NCT01797120-0188,4,DISPOSITION EVENT,PLACEBO,PROGRESSIVE DISEASE,PROGRESSIVE DISEASE,CONTINUATION,2022-11-09,674
NCT01797120,DS,NCT01797120-0188,5,DISPOSITION EVENT,STUDY PARTICIPATION,DEATH,DEATH,FOLLOW-UP,2023-10-22,1021
NCT01797120,DS,NCT01797120-0189,1,PROTOCOL MILESTONE,,INFORMED CONSENT OBTAINED,INFORMED CONSENT OBTAINED,,2022-08-16,-20
NCT01797120,DS,NCT01797120-0189,2,PROTOCOL MILESTONE,,RANDOMIZED,RANDOMIZED,,2022-09-05,1
NCT01797120,DS,NCT01797120-0189,3,DISPOSITION EVENT,FULVESTRANT,WITHDRAWAL BY SUBJECT,WITHDRAWAL BY SUBJECT,INDUCTION,2023-03-27,204
NCT01797120,DS,NCT01797120-0189,4,DISPOSITION EVENT,EVEROLIMUS,WITHDRAWAL BY SUBJECT,WITHDRAWAL BY SUBJECT,INDUCTION,2023-03-27,204
NCT01797120,DS,NCT01797120-0189,5,DISPOSITION EVENT,STUDY PARTICIPATION,WITHDRAWAL BY SUBJECT,WITHDRAWAL BY SUBJECT,FOLLOW-UP,2023-03-27,204
NCT01797120,DS,NCT01797120-0190,1,PROTOCOL MILESTONE,,INFORMED CONSENT OBTAINED,INFORMED CONSENT OBTAINED,,2021-10-05,-28
NCT01797120,DS,NCT01797120-0190,2,PROTOCOL MILESTONE,,RANDOMIZED,RANDOMIZED,,2021-11-02,1
NCT01797120,DS,NCT01797120-0190,3,DISPOSITION EVENT,FULVESTRANT,PROGRESSIVE DISEASE,PROGRESSIVE DISEASE,CONTINUATION,2022-10-05,338
NCT01797120,DS,NCT01797120-0190,4,DISPOSITION EVENT,EVEROLIMUS,PROGRESSIVE DISEASE,PROGRESSIVE DISEASE,CONTINUATION,2022-10-05,338
NCT01797120,DS,NCT01797120-0190,5,DISPOSITION EVENT,STUDY PARTICIPATION,LOST TO FOLLOW-UP,LOST TO FOLLOW-UP,FOLLOW-UP,2022-11-21,385
NCT01797120,DS,NCT01797120-0191,1,PROTOCOL MILESTONE,,INFORMED CONSENT OBTAINED,INFORMED CONSENT OBTAINED,,2021-11-16,-24
NCT01797120,DS,NCT01797120-0191,2,PROTOCOL MILESTONE,,RANDOMIZED,RANDOMIZED,,2021-12-10,1
NCT01797120,DS,NCT01797120-0191,3,DISPOSITION EVENT,FULVESTRANT,PROGRESSIVE DISEASE,PROGRESSIVE DISEASE,INDUCTION,2022-08-20,254
NCT01797120,DS,NCT01797120-0191,4,DISPOSITION EVENT,EVEROLIMUS,PROGRESSIVE DISEASE,PROGRESSIVE DISEASE,INDUCTION,2022-08-20,254
NCT01797120,DS,NCT01797120-0191,5,DISPOSITION EVENT,STUDY PARTICIPATION,DEATH,DEATH,FOLLOW-UP,2022-10-20,315
NCT01797120,DS,NCT01797120-0192,1,PROTOCOL MILESTONE,,INFORMED CONSENT OBTAINED,INFORMED CONSENT OBTAINED,,2022-06-17,-10
NCT01797120,DS,NCT01797120-0192,2,PROTOCOL MILESTONE,,RANDOMIZED,RANDOMIZED,,2022-06-27,1
NCT01797120,DS,NCT01797120-0192,3,DISPOSITION EVENT,FULVESTRANT,LOST TO FOLLOW-UP,LOST TO FOLLOW-UP,CONTINUATION,2024-02-13,597
NCT01797120,DS,NCT01797120-0192,4,DISPOSITION EVENT,EVEROLIMUS,LOST TO FOLLOW-UP,LOST TO FOLLOW-UP,CONTINUATION,2024-02-13,597
NCT01797120,DS,NCT01797120-0192,5,DISPOSITION EVENT,STUDY PARTICIPATION,LOST TO FOLLOW-UP,LOST TO FOLLOW-UP,FOLLOW-UP,2024-03-27,640
NCT01797120,DS,NCT01797120-0193,1,PROTOCOL MILESTONE,,INFORMED CONSENT OBTAINED,INFORMED CONSENT OBTAINED,,2022-07-01,-20
NCT01797120,DS,NCT01797120-0193,2,PROTOCOL MILESTONE,,RANDOMIZED,RANDOMIZED,,2022-07-21,1
NCT01797120,DS,NCT01797120-0193,3,DISPOSITION EVENT,FULVESTRANT,PROGRESSIVE DISEASE,PROGRESSIVE DISEASE,INDUCTION,2022-10-14,86
NCT01797120,DS,NCT01797120-0193,4,DISPOSITION EVENT,EVEROLIMUS,PROGRESSIVE DISEASE,PROGRESSIVE DISEASE,INDUCTION,2022-10-14,86
NCT01797120,DS,NCT01797120-0193,5,DISPOSITION EVENT,STUDY PARTICIPATION,DEATH,DEATH,FOLLOW-UP,2023-01-27,191
NCT01797120,DS,NCT01797120-0194,1,PROTOCOL MILESTONE,,INFORMED CONSENT OBTAINED,INFORMED CONSENT OBTAINED,,2021-05-08,-26
NCT01797120,DS,NCT01797120-0194,2,PROTOCOL MILESTONE,,RANDOMIZED,RANDOMIZED,,2021-06-03,1
NCT01797120,DS,NCT01797120-0194,3,DISPOSITION EVENT,FULVESTRANT,PROGRESSIVE DISEASE,PROGRESSIVE DISEASE,CONTINUATION,2023-04-07,674
NCT01797120,DS,NCT01797120-0194,4,DISPOSITION EVENT,EVEROLIMUS,PROGRESSIVE DISEASE,PROGRESSIVE DISEASE,CONTINUATION,2023-04-07,674
NCT01797120,DS,NCT01797120-0194,5,DISPOSITION EVENT,STUDY PARTICIPATION,DEATH,DEATH,FOLLOW-UP,2024-06-14,1108
NCT01797120,DS,NCT01797120-0195,1,PROTOCOL MILESTONE,,INFORMED CONSENT OBTAINED,INFORMED CONSENT OBTAINED,,2021-12-05,-15
NCT01797120,DS,NCT01797120-0195,2,PROTOCOL MILESTONE,,RANDOMIZED,RANDOMIZED,,2021-12-20,1
NCT01797120,DS,NCT01797120-0195,3,DISPOSITION EVENT,FULVESTRANT,PROGRESSIVE DISEASE,PROGRESSIVE DISEASE,CONTINUATION,2023-02-14,422
NCT01797120,DS,NCT01797120-0195,4,DISPOSITION EVENT,PLACEBO,PROGRESSIVE DISEASE,PROGRESSIVE DISEASE,CONTINUATION,2023-02-14,422
NCT01797120,DS,NCT01797120-0195,5,DISPOSITION EVENT,STUDY PARTICIPATION,LOST TO FOLLOW-UP,LOST TO FOLLOW-UP,FOLLOW-UP,2023-03-18,454
NCT01797120,DS,NCT01797120-0196,1,PROTOCOL MILESTONE,,INFORMED CONSENT OBTAINED,INFORMED CONSENT OBTAINED,,2021-11-26,-28
NCT01797120,DS,NCT01797120-0196,2,PROTOCOL MILESTONE,,RANDOMIZED,RANDOMIZED,,2021-12-24,1
NCT01797120,DS,NCT01797120-0196,3,DISPOSITION EVENT,FULVESTRANT,PROGRESSIVE DISEASE,PROGRESSIVE DISEASE,CONTINUATION,2022-11-26,338
NCT01797120,DS,NCT01797120-0196,4,DISPOSITION EVENT,EVEROLIMUS,PROGRESSIVE DISEASE,PROGRESSIVE DISEASE,CONTINUATION,2022-11-26,338
NCT01797120,DS,NCT01797120-0196,5,DISPOSITION EVENT,STUDY PARTICIPATION,DEATH,DEATH,FOLLOW-UP,2022-11-27,339
NCT01797120,DS,NCT01797120-0197,1,PROTOCOL MILESTONE,,INFORMED CONSENT OBTAINED,INFORMED CONSENT OBTAINED,,2022-11-09,-20
NCT01797120,DS,NCT01797120-0197,2,PROTOCOL MILESTONE,,RANDOMIZED,RANDOMIZED,,2022-11-29,1
NCT01797120,DS,NCT01797120-0197,3,DISPOSITION EVENT,FULVESTRANT,PROGRESSIVE DISEASE,PROGRESSIVE DISEASE,INDUCTION,2023-02-22,86
NCT01797120,DS,NCT01797120-0197,4,DISPOSITION EVENT,PLACEBO,PROGRESSIVE DISEASE,PROGRESSIVE DISEASE,INDUCTION,2023-02-22,86
NCT01797120,DS,NCT01797120-0197,5,DISPOSITION EVENT,STUDY PARTICIPATION,LOST TO FOLLOW-UP,LOST TO FOLLOW-UP,FOLLOW-UP,2023-06-11,195
NCT01797120,DS,NCT01797120-0198,1,PROTOCOL MILESTONE,,INFORMED CONSENT OBTAINED,INFORMED CONSENT OBTAINED,,2022-01-31,-12
NCT01797120,DS,NCT01797120-0198,2,PROTOCOL MILESTONE,,RANDOMIZED,RANDOMIZED,,2022-02-12,1
NCT01797120,DS,NCT01797120-0198,3,DISPOSITION EVENT,FULVESTRANT,PROGRESSIVE DISEASE,PROGRESSIVE DISEASE,CONTINUATION,2023-01-15,338
NCT01797120,DS,NCT01797120-0198,4,DISPOSITION EVENT,PLACEBO,PROGRESSIVE DISEASE,PROGRESSIVE DISEASE,CONTINUATION,2023-01-15,338
NCT01797120,DS,NCT01797120-0198,5,DISPOSITION EVENT,STUDY PARTICIPATION,DEATH,DEATH,FOLLOW-UP,2023-11-30,657
NCT01797120,DS,NCT01797120-0199,1,PROTOCOL MILESTONE,,INFORMED CONSENT OBTAINED,INFORMED CONSENT OBTAINED,,2022-01-24,-23
NCT01797120,DS,NCT01797120-0199,2,PROTOCOL MILESTONE,,RANDOMIZED,RANDOMIZED,,2022-02-16,1
NCT01797120,DS,NCT01797120-0199,3,DISPOSITION EVENT,FULVESTRANT,PROGRESSIVE DISEASE,PROGRESSIVE DISEASE,INDUCTION,2022-08-04,170
NCT01797120,DS,NCT01797120-0199,4,DISPOSITION EVENT,EVEROLIMUS,PROGRESSIVE DISEASE,PROGRESSIVE DISEASE,INDUCTION,2022-08-04,170
NCT01797120,DS,NCT01797120-0199,5,DISPOSITION EVENT,STUDY PARTICIPATION,DEATH,DEATH,FOLLOW-UP,2023-07-15,515
NCT01797120,DS,NCT01797120-0200,1,PROTOCOL MILESTONE,,INFORMED CONSENT OBTAINED,INFORMED CONSENT OBTAINED,,2021-01-09,-21
NCT01797120,DS,NCT01797120-0200,2,PROTOCOL MILESTONE,,RANDOMIZED,RANDOMIZED,,2021-01-30,1
NCT01797120,DS,NCT01797120-0200,3,DISPOSITION EVENT,FULVESTRANT,PROGRESSIVE DISEASE,PROGRESSIVE DISEASE,INDUCTION,2021-04-25,86
NCT01797120,DS,NCT01797120-0200,4,DISPOSITION EVENT,PLACEBO,PROGRESSIVE DISEASE,PROGRESSIVE DISEASE,INDUCTION,2021-04-25,86
NCT01797120,DS,NCT01797120-0200,5,DISPOSITION EVENT,STUDY PARTICIPATION,DEATH,DEATH,FOLLOW-UP,2021-08-12,195
