STUDYID,DOMAIN,USUBJID,EXSEQ,EXTRT,EXDOSE,EXDOSU,EXDOSFRM,EXDOSFRQ,EXROUTE,EXSTDTC,EXENDTC,EXSTDY,EXENDY,EPOCH
NCT01797120,EX,NCT01797120-0001,1,FULVESTRANT,250,mg,SOLUTION,ONCE,INTRAMUSCULAR,2021-08-05,2021-08-05,1,1,INDUCTION
NCT01797120,EX,NCT01797120-0001,2,FULVESTRANT,250,mg,SOLUTION,ONCE,INTRAMUSCULAR,2021-08-19,2021-08-19,15,15,INDUCTION
NCT01797120,EX,NCT01797120-0001,3,FULVESTRANT,500,mg,SOLUTION,ONCE,INTRAMUSCULAR,2021-09-02,2021-09-02,29,29,INDUCTION
NCT01797120,EX,NCT01797120-0001,4,FULVESTRANT,500,mg,SOLUTION,ONCE,INTRAMUSCULAR,2021-09-30,2021-09-30,57,57,INDUCTION
NCT01797120,EX,NCT01797120-0001,5,FULVESTRANT,500,mg,SOLUTION,ONCE,INTRAMUSCULAR,2021-10-28,2021-10-28,85,85,INDUCTION
NCT01797120,EX,NCT01797120-0001,6,FULVESTRANT,500,mg,SOLUTION,ONCE,INTRAMUSCULAR,2021-11-25,2021-11-25,113,113,INDUCTION
NCT01797120,EX,NCT01797120-0001,7,FULVESTRANT,500,mg,SOLUTION,ONCE,INTRAMUSCULAR,2021-12-23,2021-12-23,141,141,INDUCTION
NCT01797120,EX,NCT01797120-0001,8,FULVESTRANT,500,mg,SOLUTION,ONCE,INTRAMUSCULAR,2022-01-20,2022-01-20,169,169,INDUCTION
NCT01797120,EX,NCT01797120-0001,9,FULVESTRANT,500,mg,SOLUTION,ONCE,INTRAMUSCULAR,2022-02-17,2022-02-17,197,197,INDUCTION
NCT01797120,EX,NCT01797120-0001,10,FULVESTRANT,500,mg,SOLUTION,ONCE,INTRAMUSCULAR,2022-03-17,2022-03-17,225,225,INDUCTION
NCT01797120,EX,NCT01797120-0001,11,FULVESTRANT,500,mg,SOLUTION,ONCE,INTRAMUSCULAR,2022-04-14,2022-04-14,253,253,INDUCTION
NCT01797120,EX,NCT01797120-0001,12,FULVESTRANT,500,mg,SOLUTION,ONCE,INTRAMUSCULAR,2022-05-12,2022-05-12,281,281,INDUCTION
NCT01797120,EX,NCT01797120-0001,13,FULVESTRANT,500,mg,SOLUTION,ONCE,INTRAMUSCULAR,2022-06-09,2022-06-09,309,309,INDUCTION
NCT01797120,EX,NCT01797120-0001,14,FULVESTRANT,500,mg,SOLUTION,ONCE,INTRAMUSCULAR,2022-07-07,2022-07-07,337,337,INDUCTION
NCT01797120,EX,NCT01797120-0001,15,FULVESTRANT,500,mg,SOLUTION,ONCE,INTRAMUSCULAR,2022-08-04,2022-08-04,365,365,CONTINUATION
NCT01797120,EX,NCT01797120-0001,16,FULVESTRANT,500,mg,SOLUTION,ONCE,INTRAMUSCULAR,2022-09-01,2022-09-01,393,393,CONTINUATION
NCT01797120,EX,NCT01797120-0001,17,FULVESTRANT,500,mg,SOLUTION,ONCE,INTRAMUSCULAR,2022-09-29,2022-09-29,421,421,CONTINUATION
NCT01797120,EX,NCT01797120-0001,18,FULVESTRANT,500,mg,SOLUTION,ONCE,INTRAMUSCULAR,2022-10-27,2022-10-27,449,449,CONTINUATION
NCT01797120,EX,NCT01797120-0001,19,FULVESTRANT,500,mg,SOLUTION,ONCE,INTRAMUSCULAR,2022-11-24,2022-11-24,477,477,CONTINUATION
NCT01797120,EX,NCT01797120-0001,20,FULVESTRANT,500,mg,SOLUTION,ONCE,INTRAMUSCULAR,2022-12-22,2022-12-22,505,505,CONTINUATION
NCT01797120,EX,NCT01797120-0001,21,FULVESTRANT,500,mg,SOLUTION,ONCE,INTRAMUSCULAR,2023-01-19,2023-01-19,533,533,CONTINUATION
NCT01797120,EX,NCT01797120-0001,22,EVEROLIMUS,10,mg,TABLET,QD,ORAL,2021-08-05,2023-02-07,1,552,INDUCTION
NCT01797120,EX,NCT01797120-0002,1,FULVESTRANT,250,mg,SOLUTION,ONCE,INTRAMUSCULAR,2022-01-17,2022-01-17,1,1,INDUCTION
NCT01797120,EX,NCT01797120-0002,2,FULVESTRANT,250,mg,SOLUTION,ONCE,INTRAMUSCULAR,2022-01-31,2022-01-31,15,15,INDUCTION
NCT01797120,EX,NCT01797120-0002,3,FULVESTRANT,500,mg,SOLUTION,ONCE,INTRAMUSCULAR,2022-02-14,2022-02-14,29,29,INDUCTION
NCT01797120,EX,NCT01797120-0002,4,FULVESTRANT,500,mg,SOLUTION,ONCE,INTRAMUSCULAR,2022-03-14,2022-03-14,57,57,INDUCTION
NCT01797120,EX,NCT01797120-0002,5,PLACEBO,0,mg,TABLET,QD,ORAL,2022-01-17,2022-04-12,1,86,INDUCTION
NCT01797120,EX,NCT01797120-0003,1,FULVESTRANT,250,mg,SOLUTION,ONCE,INTRAMUSCULAR,2021-01-25,2021-01-25,1,1,INDUCTION
NCT01797120,EX,NCT01797120-0003,2,FULVESTRANT,250,mg,SOLUTION,ONCE,INTRAMUSCULAR,2021-02-08,2021-02-08,15,15,INDUCTION
NCT01797120,EX,NCT01797120-0003,3,FULVESTRANT,500,mg,SOLUTION,ONCE,INTRAMUSCULAR,2021-02-22,2021-02-22,29,29,INDUCTION
NCT01797120,EX,NCT01797120-0003,4,FULVESTRANT,500,mg,SOLUTION,ONCE,INTRAMUSCULAR,2021-03-22,2021-03-22,57,57,INDUCTION
NCT01797120,EX,NCT01797120-0003,5,FULVESTRANT,500,mg,SOLUTION,ONCE,INTRAMUSCULAR,2021-04-19,2021-04-19,85,85,INDUCTION
NCT01797120,EX,NCT01797120-0003,8,PLACEBO,0,mg,TABLET,QD,ORAL,2021-01-25,2021-04-20,1,86,INDUCTION
NCT01797120,EX,NCT01797120-0004,1,FULVESTRANT,250,mg,SOLUTION,ONCE,INTRAMUSCULAR,2021-03-09,2021-03-09,1,1,INDUCTION
NCT01797120,EX,NCT01797120-0004,2,FULVESTRANT,250,mg,SOLUTION,ONCE,INTRAMUSCULAR,2021-03-23,2021-03-23,15,15,INDUCTION
NCT01797120,EX,NCT01797120-0004,3,FULVESTRANT,500,mg,SOLUTION,ONCE,INTRAMUSCULAR,2021-04-06,2021-04-06,29,29,INDUCTION
NCT01797120,EX,NCT01797120-0004,4,FULVESTRANT,500,mg,SOLUTION,ONCE,INTRAMUSCULAR,2021-05-04,2021-05-04,57,57,INDUCTION
NCT01797120,EX,NCT01797120-0004,5,FULVESTRANT,500,mg,SOLUTION,ONCE,INTRAMUSCULAR,2021-06-01,2021-06-01,85,85,INDUCTION
NCT01797120,EX,NCT01797120-0004,22,EVEROLIMUS,10,mg,TABLET,QD,ORAL,2021-03-09,2021-06-02,1,86,INDUCTION
NCT01797120,EX,NCT01797120-0005,1,FULVESTRANT,250,mg,SOLUTION,ONCE,INTRAMUSCULAR,2021-08-23,2021-08-23,1,1,INDUCTION
NCT01797120,EX,NCT01797120-0005,2,FULVESTRANT,250,mg,SOLUTION,ONCE,INTRAMUSCULAR,2021-09-06,2021-09-06,15,15,INDUCTION
NCT01797120,EX,NCT01797120-0005,3,FULVESTRANT,500,mg,SOLUTION,ONCE,INTRAMUSCULAR,2021-09-20,2021-09-20,29,29,INDUCTION
NCT01797120,EX,NCT01797120-0005,4,FULVESTRANT,500,mg,SOLUTION,ONCE,INTRAMUSCULAR,2021-10-18,2021-10-18,57,57,INDUCTION
NCT01797120,EX,NCT01797120-0005,5,FULVESTRANT,500,mg,SOLUTION,ONCE,INTRAMUSCULAR,2021-11-15,2021-11-15,85,85,INDUCTION
NCT01797120,EX,NCT01797120-0005,6,FULVESTRANT,500,mg,SOLUTION,ONCE,INTRAMUSCULAR,2021-12-13,2021-12-13,113,113,INDUCTION
NCT01797120,EX,NCT01797120-0005,7,PLACEBO,0,mg,TABLET,QD,ORAL,2021-08-23,2022-10-18,1,422,INDUCTION
NCT01797120,EX,NCT01797120-0006,1,FULVESTRANT,250,mg,SOLUTION,ONCE,INTRAMUSCULAR,2022-12-18,2022-12-18,1,1,INDUCTION
NCT01797120,EX,NCT01797120-0006,2,FULVESTRANT,250,mg,SOLUTION,ONCE,INTRAMUSCULAR,2023-01-01,2023-01-01,15,15,INDUCTION
NCT01797120,EX,NCT01797120-0006,3,FULVESTRANT,500,mg,SOLUTION,ONCE,INTRAMUSCULAR,2023-01-15,2023-01-15,29,29,INDUCTION
NCT01797120,EX,NCT01797120-0006,4,FULVESTRANT,500,mg,SOLUTION,ONCE,INTRAMUSCULAR,2023-02-12,2023-02-12,57,57,INDUCTION
NCT01797120,EX,NCT01797120-0006,5,FULVESTRANT,500,mg,SOLUTION,ONCE,INTRAMUSCULAR,2023-03-12,2023-03-12,85,85,INDUCTION
NCT01797120,EX,NCT01797120-0006,12,PLACEBO,0,mg,TABLET,QD,ORAL,2022-12-18,2023-03-13,1,86,INDUCTION
NCT01797120,EX,NCT01797120-0007,1,FULVESTRANT,250,mg,SOLUTION,ONCE,INTRAMUSCULAR,2021-10-19,2021-10-19,1,1,INDUCTION
NCT01797120,EX,NCT01797120-0007,2,FULVESTRANT,250,mg,SOLUTION,ONCE,INTRAMUSCULAR,2021-11-02,2021-11-02,15,15,INDUCTION
NCT01797120,EX,NCT01797120-0007,3,FULVESTRANT,500,mg,SOLUTION,ONCE,INTRAMUSCULAR,2021-11-16,2021-11-16,29,29,INDUCTION
NCT01797120,EX,NCT01797120-0007,4,FULVESTRANT,500,mg,SOLUTION,ONCE,INTRAMUSCULAR,2021-12-14,2021-12-14,57,57,INDUCTION
NCT01797120,EX,NCT01797120-0007,5,FULVESTRANT,500,mg,SOLUTION,ONCE,INTRAMUSCULAR,2022-01-11,2022-01-11,85,85,INDUCTION
NCT01797120,EX,NCT01797120-0007,6,FULVESTRANT,500,mg,SOLUTION,ONCE,INTRAMUSCULAR,2022-02-08,2022-02-08,113,113,INDUCTION
NCT01797120,EX,NCT01797120-0007,7,FULVESTRANT,500,mg,SOLUTION,ONCE,INTRAMUSCULAR,2022-03-08,2022-03-08,141,141,INDUCTION
NCT01797120,EX,NCT01797120-0007,8,FULVESTRANT,500,mg,SOLUTION,ONCE,INTRAMUSCULAR,2022-04-05,2022-04-05,169,169,INDUCTION
NCT01797120,EX,NCT01797120-0007,19,EVEROLIMUS,10,mg,TABLET,QD,ORAL,2021-10-19,2022-04-06,1,170,INDUCTION
NCT01797120,EX,NCT01797120-0008,1,FULVESTRANT,250,mg,SOLUTION,ONCE,INTRAMUSCULAR,2022-12-28,2022-12-28,1,1,INDUCTION
NCT01797120,EX,NCT01797120-0008,2,FULVESTRANT,250,mg,SOLUTION,ONCE,INTRAMUSCULAR,2023-01-11,2023-01-11,15,15,INDUCTION
NCT01797120,EX,NCT01797120-0008,3,FULVESTRANT,500,mg,SOLUTION,ONCE,INTRAMUSCULAR,2023-01-25,2023-01-25,29,29,INDUCTION
NCT01797120,EX,NCT01797120-0008,4,FULVESTRANT,500,mg,SOLUTION,ONCE,INTRAMUSCULAR,2023-02-22,2023-02-22,57,57,INDUCTION
NCT01797120,EX,NCT01797120-0008,5,FULVESTRANT,500,mg,SOLUTION,ONCE,INTRAMUSCULAR,2023-03-22,2023-03-22,85,85,INDUCTION
NCT01797120,EX,NCT01797120-0008,15,PLACEBO,0,mg,TABLET,QD,ORAL,2022-12-28,2023-03-23,1,86,INDUCTION
NCT01797120,EX,NCT01797120-0009,1,FULVESTRANT,250,mg,SOLUTION,ONCE,INTRAMUSCULAR,2022-12-03,2022-12-03,1,1,INDUCTION
NCT01797120,EX,NCT01797120-0009,2,FULVESTRANT,250,mg,SOLUTION,ONCE,INTRAMUSCULAR,2022-12-17,2022-12-17,15,15,INDUCTION
NCT01797120,EX,NCT01797120-0009,3,FULVESTRANT,500,mg,SOLUTION,ONCE,INTRAMUSCULAR,2022-12-31,2022-12-31,29,29,INDUCTION
NCT01797120,EX,NCT01797120-0009,4,FULVESTRANT,500,mg,SOLUTION,ONCE,INTRAMUSCULAR,2023-01-28,2023-01-28,57,57,INDUCTION
NCT01797120,EX,NCT01797120-0009,5,FULVESTRANT,500,mg,SOLUTION,ONCE,INTRAMUSCULAR,2023-02-25,2023-02-25,85,85,INDUCTION
NCT01797120,EX,NCT01797120-0009,6,FULVESTRANT,500,mg,SOLUTION,ONCE,INTRAMUSCULAR,2023-03-25,2023-03-25,113,113,INDUCTION
NCT01797120,EX,NCT01797120-0009,7,FULVESTRANT,500,mg,SOLUTION,ONCE,INTRAMUSCULAR,2023-04-22,2023-04-22,141,141,INDUCTION
NCT01797120,EX,NCT01797120-0009,8,FULVESTRANT,500,mg,SOLUTION,ONCE,INTRAMUSCULAR,2023-05-20,2023-05-20,169,169,INDUCTION
NCT01797120,EX,NCT01797120-0009,9,FULVESTRANT,500,mg,SOLUTION,ONCE,INTRAMUSCULAR,2023-06-17,2023-06-17,197,197,INDUCTION
NCT01797120,EX,NCT01797120-0009,10,FULVESTRANT,500,mg,SOLUTION,ONCE,INTRAMUSCULAR,2023-07-15,2023-07-15,225,225,INDUCTION
NCT01797120,EX,NCT01797120-0009,11,FULVESTRANT,500,mg,SOLUTION,ONCE,INTRAMUSCULAR,2023-08-12,2023-08-12,253,253,INDUCTION
NCT01797120,EX,NCT01797120-0009,12,FULVESTRANT,500,mg,SOLUTION,ONCE,INTRAMUSCULAR,2023-09-09,2023-09-09,281,281,INDUCTION
NCT01797120,EX,NCT01797120-0009,13,FULVESTRANT,500,mg,SOLUTION,ONCE,INTRAMUSCULAR,2023-10-07,2023-10-07,309,309,INDUCTION
NCT01797120,EX,NCT01797120-0009,14,FULVESTRANT,500,mg,SOLUTION,ONCE,INTRAMUSCULAR,2023-11-04,2023-11-04,337,337,INDUCTION
NCT01797120,EX,NCT01797120-0009,15,FULVESTRANT,500,mg,SOLUTION,ONCE,INTRAMUSCULAR,2023-12-02,2023-12-02,365,365,CONTINUATION
NCT01797120,EX,NCT01797120-0009,16,FULVESTRANT,500,mg,SOLUTION,ONCE,INTRAMUSCULAR,2023-12-30,2023-12-30,393,393,CONTINUATION
NCT01797120,EX,NCT01797120-0009,17,FULVESTRANT,500,mg,SOLUTION,ONCE,INTRAMUSCULAR,2024-01-27,2024-01-27,421,421,CONTINUATION
NCT01797120,EX,NCT01797120-0009,18,FULVESTRANT,500,mg,SOLUTION,ONCE,INTRAMUSCULAR,2024-02-24,2024-02-24,449,449,CONTINUATION
NCT01797120,EX,NCT01797120-0009,19,EVEROLIMUS,10,mg,TABLET,QD,ORAL,2022-12-03,2024-03-01,1,455,INDUCTION
NCT01797120,EX,NCT01797120-0010,1,FULVESTRANT,250,mg,SOLUTION,ONCE,INTRAMUSCULAR,2022-12-11,2022-12-11,1,1,INDUCTION
NCT01797120,EX,NCT01797120-0010,2,FULVESTRANT,250,mg,SOLUTION,ONCE,INTRAMUSCULAR,2022-12-25,2022-12-25,15,15,INDUCTION
NCT01797120,EX,NCT01797120-0010,3,FULVESTRANT,500,mg,SOLUTION,ONCE,INTRAMUSCULAR,2023-01-08,2023-01-08,29,29,INDUCTION
NCT01797120,EX,NCT01797120-0010,4,FULVESTRANT,500,mg,SOLUTION,ONCE,INTRAMUSCULAR,2023-02-05,2023-02-05,57,57,INDUCTION
NCT01797120,EX,NCT01797120-0010,5,FULVESTRANT,500,mg,SOLUTION,ONCE,INTRAMUSCULAR,2023-03-05,2023-03-05,85,85,INDUCTION
NCT01797120,EX,NCT01797120-0010,6,FULVESTRANT,500,mg,SOLUTION,ONCE,INTRAMUSCULAR,2023-04-02,2023-04-02,113,113,INDUCTION
NCT01797120,EX,NCT01797120-0010,7,FULVESTRANT,500,mg,SOLUTION,ONCE,INTRAMUSCULAR,2023-04-30,2023-04-30,141,141,INDUCTION
NCT01797120,EX,NCT01797120-0010,8,PLACEBO,0,mg,TABLET,QD,ORAL,2022-12-11,2024-07-22,1,590,INDUCTION
NCT01797120,EX,NCT01797120-0011,1,FULVESTRANT,250,mg,SOLUTION,ONCE,INTRAMUSCULAR,2022-12-29,2022-12-29,1,1,INDUCTION
NCT01797120,EX,NCT01797120-0011,2,FULVESTRANT,250,mg,SOLUTION,ONCE,INTRAMUSCULAR,2023-01-12,2023-01-12,15,15,INDUCTION
NCT01797120,EX,NCT01797120-0011,3,FULVESTRANT,500,mg,SOLUTION,ONCE,INTRAMUSCULAR,2023-01-26,2023-01-26,29,29,INDUCTION
NCT01797120,EX,NCT01797120-0011,4,FULVESTRANT,500,mg,SOLUTION,ONCE,INTRAMUSCULAR,2023-02-23,2023-02-23,57,57,INDUCTION
NCT01797120,EX,NCT01797120-0011,5,FULVESTRANT,500,mg,SOLUTION,ONCE,INTRAMUSCULAR,2023-03-23,2023-03-23,85,85,INDUCTION
NCT01797120,EX,NCT01797120-0011,6,FULVESTRANT,500,mg,SOLUTION,ONCE,INTRAMUSCULAR,2023-04-20,2023-04-20,113,113,INDUCTION
NCT01797120,EX,NCT01797120-0011,7,FULVESTRANT,500,mg,SOLUTION,ONCE,INTRAMUSCULAR,2023-05-18,2023-05-18,141,141,INDUCTION
NCT01797120,EX,NCT01797120-0011,8,FULVESTRANT,500,mg,SOLUTION,ONCE,INTRAMUSCULAR,2023-06-15,2023-06-15,169,169,INDUCTION
NCT01797120,EX,NCT01797120-0011,9,FULVESTRANT,500,mg,SOLUTION,ONCE,INTRAMUSCULAR,2023-07-13,2023-07-13,197,197,INDUCTION
NCT01797120,EX,NCT01797120-0011,10,FULVESTRANT,500,mg,SOLUTION,ONCE,INTRAMUSCULAR,2023-08-10,2023-08-10,225,225,INDUCTION
NCT01797120,EX,NCT01797120-0011,11,FULVESTRANT,500,mg,SOLUTION,ONCE,INTRAMUSCULAR,2023-09-07,2023-09-07,253,253,INDUCTION
NCT01797120,EX,NCT01797120-0011,12,FULVESTRANT,500,mg,SOLUTION,ONCE,INTRAMUSCULAR,2023-10-05,2023-10-05,281,281,INDUCTION
NCT01797120,EX,NCT01797120-0011,13,EVEROLIMUS,10,mg,TABLET,QD,ORAL,2022-12-29,2023-10-07,1,283,INDUCTION
NCT01797120,EX,NCT01797120-0012,1,FULVESTRANT,250,mg,SOLUTION,ONCE,INTRAMUSCULAR,2022-07-10,2022-07-10,1,1,INDUCTION
NCT01797120,EX,NCT01797120-0012,2,FULVESTRANT,250,mg,SOLUTION,ONCE,INTRAMUSCULAR,2022-07-24,2022-07-24,15,15,INDUCTION
NCT01797120,EX,NCT01797120-0012,3,FULVESTRANT,500,mg,SOLUTION,ONCE,INTRAMUSCULAR,2022-08-07,2022-08-07,29,29,INDUCTION
NCT01797120,EX,NCT01797120-0012,4,FULVESTRANT,500,mg,SOLUTION,ONCE,INTRAMUSCULAR,2022-09-04,2022-09-04,57,57,INDUCTION
NCT01797120,EX,NCT01797120-0012,5,FULVESTRANT,500,mg,SOLUTION,ONCE,INTRAMUSCULAR,2022-10-02,2022-10-02,85,85,INDUCTION
NCT01797120,EX,NCT01797120-0012,6,FULVESTRANT,500,mg,SOLUTION,ONCE,INTRAMUSCULAR,2022-10-30,2022-10-30,113,113,INDUCTION
NCT01797120,EX,NCT01797120-0012,7,FULVESTRANT,500,mg,SOLUTION,ONCE,INTRAMUSCULAR,2022-11-27,2022-11-27,141,141,INDUCTION
NCT01797120,EX,NCT01797120-0012,8,FULVESTRANT,500,mg,SOLUTION,ONCE,INTRAMUSCULAR,2022-12-25,2022-12-25,169,169,INDUCTION
NCT01797120,EX,NCT01797120-0012,9,FULVESTRANT,500,mg,SOLUTION,ONCE,INTRAMUSCULAR,2023-01-22,2023-01-22,197,197,INDUCTION
NCT01797120,EX,NCT01797120-0012,10,FULVESTRANT,500,mg,SOLUTION,ONCE,INTRAMUSCULAR,2023-02-19,2023-02-19,225,225,INDUCTION
NCT01797120,EX,NCT01797120-0012,11,FULVESTRANT,500,mg,SOLUTION,ONCE,INTRAMUSCULAR,2023-03-19,2023-03-19,253,253,INDUCTION
NCT01797120,EX,NCT01797120-0012,12,FULVESTRANT,500,mg,SOLUTION,ONCE,INTRAMUSCULAR,2023-04-16,2023-04-16,281,281,INDUCTION
NCT01797120,EX,NCT01797120-0012,13,FULVESTRANT,500,mg,SOLUTION,ONCE,INTRAMUSCULAR,2023-05-14,2023-05-14,309,309,INDUCTION
NCT01797120,EX,NCT01797120-0012,14,PLACEBO,0,mg,TABLET,QD,ORAL,2022-07-10,2024-05-13,1,674,INDUCTION
NCT01797120,EX,NCT01797120-0013,1,FULVESTRANT,250,mg,SOLUTION,ONCE,INTRAMUSCULAR,2021-02-02,2021-02-02,1,1,INDUCTION
NCT01797120,EX,NCT01797120-0013,2,FULVESTRANT,250,mg,SOLUTION,ONCE,INTRAMUSCULAR,2021-02-16,2021-02-16,15,15,INDUCTION
NCT01797120,EX,NCT01797120-0013,3,FULVESTRANT,500,mg,SOLUTION,ONCE,INTRAMUSCULAR,2021-03-02,2021-03-02,29,29,INDUCTION
NCT01797120,EX,NCT01797120-0013,4,FULVESTRANT,500,mg,SOLUTION,ONCE,INTRAMUSCULAR,2021-03-30,2021-03-30,57,57,INDUCTION
NCT01797120,EX,NCT01797120-0013,5,FULVESTRANT,500,mg,SOLUTION,ONCE,INTRAMUSCULAR,2021-04-27,2021-04-27,85,85,INDUCTION
NCT01797120,EX,NCT01797120-0013,9,PLACEBO,0,mg,TABLET,QD,ORAL,2021-02-02,2021-04-28,1,86,INDUCTION
NCT01797120,EX,NCT01797120-0014,1,FULVESTRANT,250,mg,SOLUTION,ONCE,INTRAMUSCULAR,2021-01-12,2021-01-12,1,1,INDUCTION
NCT01797120,EX,NCT01797120-0014,2,FULVESTRANT,250,mg,SOLUTION,ONCE,INTRAMUSCULAR,2021-01-26,2021-01-26,15,15,INDUCTION
NCT01797120,EX,NCT01797120-0014,3,FULVESTRANT,500,mg,SOLUTION,ONCE,INTRAMUSCULAR,2021-02-09,2021-02-09,29,29,INDUCTION
NCT01797120,EX,NCT01797120-0014,4,FULVESTRANT,500,mg,SOLUTION,ONCE,INTRAMUSCULAR,2021-03-09,2021-03-09,57,57,INDUCTION
NCT01797120,EX,NCT01797120-0014,5,FULVESTRANT,500,mg,SOLUTION,ONCE,INTRAMUSCULAR,2021-04-06,2021-04-06,85,85,INDUCTION
NCT01797120,EX,NCT01797120-0014,6,FULVESTRANT,500,mg,SOLUTION,ONCE,INTRAMUSCULAR,2021-05-04,2021-05-04,113,113,INDUCTION
NCT01797120,EX,NCT01797120-0014,7,FULVESTRANT,500,mg,SOLUTION,ONCE,INTRAMUSCULAR,2021-06-01,2021-06-01,141,141,INDUCTION
NCT01797120,EX,NCT01797120-0014,8,FULVESTRANT,500,mg,SOLUTION,ONCE,INTRAMUSCULAR,2021-06-29,2021-06-29,169,169,INDUCTION
NCT01797120,EX,NCT01797120-0014,9,FULVESTRANT,500,mg,SOLUTION,ONCE,INTRAMUSCULAR,2021-07-27,2021-07-27,197,197,INDUCTION
NCT01797120,EX,NCT01797120-0014,10,FULVESTRANT,500,mg,SOLUTION,ONCE,INTRAMUSCULAR,2021-08-24,2021-08-24,225,225,INDUCTION
NCT01797120,EX,NCT01797120-0014,11,FULVESTRANT,500,mg,SOLUTION,ONCE,INTRAMUSCULAR,2021-09-21,2021-09-21,253,253,INDUCTION
NCT01797120,EX,NCT01797120-0014,24,PLACEBO,0,mg,TABLET,QD,ORAL,2021-01-12,2021-09-22,1,254,INDUCTION
NCT01797120,EX,NCT01797120-0015,1,FULVESTRANT,250,mg,SOLUTION,ONCE,INTRAMUSCULAR,2022-09-09,2022-09-09,1,1,INDUCTION
NCT01797120,EX,NCT01797120-0015,2,FULVESTRANT,250,mg,SOLUTION,ONCE,INTRAMUSCULAR,2022-09-23,2022-09-23,15,15,INDUCTION
NCT01797120,EX,NCT01797120-0015,3,FULVESTRANT,500,mg,SOLUTION,ONCE,INTRAMUSCULAR,2022-10-07,2022-10-07,29,29,INDUCTION
NCT01797120,EX,NCT01797120-0015,4,FULVESTRANT,500,mg,SOLUTION,ONCE,INTRAMUSCULAR,2022-11-04,2022-11-04,57,57,INDUCTION
NCT01797120,EX,NCT01797120-0015,5,FULVESTRANT,500,mg,SOLUTION,ONCE,INTRAMUSCULAR,2022-12-02,2022-12-02,85,85,INDUCTION
NCT01797120,EX,NCT01797120-0015,6,FULVESTRANT,500,mg,SOLUTION,ONCE,INTRAMUSCULAR,2022-12-30,2022-12-30,113,113,INDUCTION
NCT01797120,EX,NCT01797120-0015,7,FULVESTRANT,500,mg,SOLUTION,ONCE,INTRAMUSCULAR,2023-01-27,2023-01-27,141,141,INDUCTION
NCT01797120,EX,NCT01797120-0015,8,FULVESTRANT,500,mg,SOLUTION,ONCE,INTRAMUSCULAR,2023-02-24,2023-02-24,169,169,INDUCTION
NCT01797120,EX,NCT01797120-0015,9,FULVESTRANT,500,mg,SOLUTION,ONCE,INTRAMUSCULAR,2023-03-24,2023-03-24,197,197,INDUCTION
NCT01797120,EX,NCT01797120-0015,10,FULVESTRANT,500,mg,SOLUTION,ONCE,INTRAMUSCULAR,2023-04-21,2023-04-21,225,225,INDUCTION
NCT01797120,EX,NCT01797120-0015,11,FULVESTRANT,500,mg,SOLUTION,ONCE,INTRAMUSCULAR,2023-05-19,2023-05-19,253,253,INDUCTION
NCT01797120,EX,NCT01797120-0015,18,EVEROLIMUS,10,mg,TABLET,QD,ORAL,2022-09-09,2023-05-20,1,254,INDUCTION
NCT01797120,EX,NCT01797120-0016,1,FULVESTRANT,250,mg,SOLUTION,ONCE,INTRAMUSCULAR,2021-08-01,2021-08-01,1,1,INDUCTION
NCT01797120,EX,NCT01797120-0016,2,FULVESTRANT,250,mg,SOLUTION,ONCE,INTRAMUSCULAR,2021-08-15,2021-08-15,15,15,INDUCTION
NCT01797120,EX,NCT01797120-0016,3,FULVESTRANT,500,mg,SOLUTION,ONCE,INTRAMUSCULAR,2021-08-29,2021-08-29,29,29,INDUCTION
NCT01797120,EX,NCT01797120-0016,4,FULVESTRANT,500,mg,SOLUTION,ONCE,INTRAMUSCULAR,2021-09-26,2021-09-26,57,57,INDUCTION
NCT01797120,EX,NCT01797120-0016,5,FULVESTRANT,500,mg,SOLUTION,ONCE,INTRAMUSCULAR,2021-10-24,2021-10-24,85,85,INDUCTION
NCT01797120,EX,NCT01797120-0016,6,FULVESTRANT,500,mg,SOLUTION,ONCE,INTRAMUSCULAR,2021-11-21,2021-11-21,113,113,INDUCTION
NCT01797120,EX,NCT01797120-0016,7,FULVESTRANT,500,mg,SOLUTION,ONCE,INTRAMUSCULAR,2021-12-19,2021-12-19,141,141,INDUCTION
NCT01797120,EX,NCT01797120-0016,8,FULVESTRANT,500,mg,SOLUTION,ONCE,INTRAMUSCULAR,2022-01-16,2022-01-16,169,169,INDUCTION
NCT01797120,EX,NCT01797120-0016,22,EVEROLIMUS,10,mg,TABLET,QD,ORAL,2021-08-01,2022-01-17,1,170,INDUCTION
NCT01797120,EX,NCT01797120-0017,1,FULVESTRANT,250,mg,SOLUTION,ONCE,INTRAMUSCULAR,2021-05-19,2021-05-19,1,1,INDUCTION
NCT01797120,EX,NCT01797120-0017,2,FULVESTRANT,250,mg,SOLUTION,ONCE,INTRAMUSCULAR,2021-06-02,2021-06-02,15,15,INDUCTION
NCT01797120,EX,NCT01797120-0017,3,FULVESTRANT,500,mg,SOLUTION,ONCE,INTRAMUSCULAR,2021-06-16,2021-06-16,29,29,INDUCTION
NCT01797120,EX,NCT01797120-0017,4,FULVESTRANT,500,mg,SOLUTION,ONCE,INTRAMUSCULAR,2021-07-14,2021-07-14,57,57,INDUCTION
NCT01797120,EX,NCT01797120-0017,5,FULVESTRANT,500,mg,SOLUTION,ONCE,INTRAMUSCULAR,2021-08-11,2021-08-11,85,85,INDUCTION
NCT01797120,EX,NCT01797120-0017,6,FULVESTRANT,500,mg,SOLUTION,ONCE,INTRAMUSCULAR,2021-09-08,2021-09-08,113,113,INDUCTION
NCT01797120,EX,NCT01797120-0017,7,FULVESTRANT,500,mg,SOLUTION,ONCE,INTRAMUSCULAR,2021-10-06,2021-10-06,141,141,INDUCTION
NCT01797120,EX,NCT01797120-0017,8,FULVESTRANT,500,mg,SOLUTION,ONCE,INTRAMUSCULAR,2021-11-03,2021-11-03,169,169,INDUCTION
NCT01797120,EX,NCT01797120-0017,9,FULVESTRANT,500,mg,SOLUTION,ONCE,INTRAMUSCULAR,2021-12-01,2021-12-01,197,197,INDUCTION
NCT01797120,EX,NCT01797120-0017,10,FULVESTRANT,500,mg,SOLUTION,ONCE,INTRAMUSCULAR,2021-12-29,2021-12-29,225,225,INDUCTION
NCT01797120,EX,NCT01797120-0017,11,FULVESTRANT,500,mg,SOLUTION,ONCE,INTRAMUSCULAR,2022-01-26,2022-01-26,253,253,INDUCTION
NCT01797120,EX,NCT01797120-0017,12,EVEROLIMUS,10,mg,TABLET,QD,ORAL,2021-05-19,2022-10-06,1,506,INDUCTION
NCT01797120,EX,NCT01797120-0018,1,FULVESTRANT,250,mg,SOLUTION,ONCE,INTRAMUSCULAR,2022-11-26,2022-11-26,1,1,INDUCTION
NCT01797120,EX,NCT01797120-0018,2,FULVESTRANT,250,mg,SOLUTION,ONCE,INTRAMUSCULAR,2022-12-10,2022-12-10,15,15,INDUCTION
NCT01797120,EX,NCT01797120-0018,3,FULVESTRANT,500,mg,SOLUTION,ONCE,INTRAMUSCULAR,2022-12-24,2022-12-24,29,29,INDUCTION
NCT01797120,EX,NCT01797120-0018,4,FULVESTRANT,500,mg,SOLUTION,ONCE,INTRAMUSCULAR,2023-01-21,2023-01-21,57,57,INDUCTION
NCT01797120,EX,NCT01797120-0018,5,FULVESTRANT,500,mg,SOLUTION,ONCE,INTRAMUSCULAR,2023-02-18,2023-02-18,85,85,INDUCTION
NCT01797120,EX,NCT01797120-0018,6,FULVESTRANT,500,mg,SOLUTION,ONCE,INTRAMUSCULAR,2023-03-18,2023-03-18,113,113,INDUCTION
NCT01797120,EX,NCT01797120-0018,7,FULVESTRANT,500,mg,SOLUTION,ONCE,INTRAMUSCULAR,2023-04-15,2023-04-15,141,141,INDUCTION
NCT01797120,EX,NCT01797120-0018,8,FULVESTRANT,500,mg,SOLUTION,ONCE,INTRAMUSCULAR,2023-05-13,2023-05-13,169,169,INDUCTION
NCT01797120,EX,NCT01797120-0018,22,PLACEBO,0,mg,TABLET,QD,ORAL,2022-11-26,2023-05-14,1,170,INDUCTION
NCT01797120,EX,NCT01797120-0019,1,FULVESTRANT,250,mg,SOLUTION,ONCE,INTRAMUSCULAR,2022-02-26,2022-02-26,1,1,INDUCTION
NCT01797120,EX,NCT01797120-0019,2,FULVESTRANT,250,mg,SOLUTION,ONCE,INTRAMUSCULAR,2022-03-12,2022-03-12,15,15,INDUCTION
NCT01797120,EX,NCT01797120-0019,3,FULVESTRANT,500,mg,SOLUTION,ONCE,INTRAMUSCULAR,2022-03-26,2022-03-26,29,29,INDUCTION
NCT01797120,EX,NCT01797120-0019,4,FULVESTRANT,500,mg,SOLUTION,ONCE,INTRAMUSCULAR,2022-04-23,2022-04-23,57,57,INDUCTION
NCT01797120,EX,NCT01797120-0019,5,FULVESTRANT,500,mg,SOLUTION,ONCE,INTRAMUSCULAR,2022-05-21,2022-05-21,85,85,INDUCTION
NCT01797120,EX,NCT01797120-0019,6,FULVESTRANT,500,mg,SOLUTION,ONCE,INTRAMUSCULAR,2022-06-18,2022-06-18,113,113,INDUCTION
NCT01797120,EX,NCT01797120-0019,7,FULVESTRANT,500,mg,SOLUTION,ONCE,INTRAMUSCULAR,2022-07-16,2022-07-16,141,141,INDUCTION
NCT01797120,EX,NCT01797120-0019,8,FULVESTRANT,500,mg,SOLUTION,ONCE,INTRAMUSCULAR,2022-08-13,2022-08-13,169,169,INDUCTION
NCT01797120,EX,NCT01797120-0019,9,EVEROLIMUS,10,mg,TABLET,QD,ORAL,2022-02-26,2025-11-02,1,1346,INDUCTION
NCT01797120,EX,NCT01797120-0020,1,FULVESTRANT,250,mg,SOLUTION,ONCE,INTRAMUSCULAR,2022-09-30,2022-09-30,1,1,INDUCTION
NCT01797120,EX,NCT01797120-0020,2,FULVESTRANT,250,mg,SOLUTION,ONCE,INTRAMUSCULAR,2022-10-14,2022-10-14,15,15,INDUCTION
NCT01797120,EX,NCT01797120-0020,3,FULVESTRANT,500,mg,SOLUTION,ONCE,INTRAMUSCULAR,2022-10-28,2022-10-28,29,29,INDUCTION
NCT01797120,EX,NCT01797120-0020,4,FULVESTRANT,500,mg,SOLUTION,ONCE,INTRAMUSCULAR,2022-11-25,2022-11-25,57,57,INDUCTION
NCT01797120,EX,NCT01797120-0020,5,FULVESTRANT,500,mg,SOLUTION,ONCE,INTRAMUSCULAR,2022-12-23,2022-12-23,85,85,INDUCTION
NCT01797120,EX,NCT01797120-0020,6,FULVESTRANT,500,mg,SOLUTION,ONCE,INTRAMUSCULAR,2023-01-20,2023-01-20,113,113,INDUCTION
NCT01797120,EX,NCT01797120-0020,7,FULVESTRANT,500,mg,SOLUTION,ONCE,INTRAMUSCULAR,2023-02-17,2023-02-17,141,141,INDUCTION
NCT01797120,EX,NCT01797120-0020,8,EVEROLIMUS,10,mg,TABLET,QD,ORAL,2022-09-30,2023-06-10,1,254,INDUCTION
NCT01797120,EX,NCT01797120-0021,1,FULVESTRANT,250,mg,SOLUTION,ONCE,INTRAMUSCULAR,2022-10-31,2022-10-31,1,1,INDUCTION
NCT01797120,EX,NCT01797120-0021,2,FULVESTRANT,250,mg,SOLUTION,ONCE,INTRAMUSCULAR,2022-11-14,2022-11-14,15,15,INDUCTION
NCT01797120,EX,NCT01797120-0021,3,FULVESTRANT,500,mg,SOLUTION,ONCE,INTRAMUSCULAR,2022-11-28,2022-11-28,29,29,INDUCTION
NCT01797120,EX,NCT01797120-0021,4,FULVESTRANT,500,mg,SOLUTION,ONCE,INTRAMUSCULAR,2022-12-26,2022-12-26,57,57,INDUCTION
NCT01797120,EX,NCT01797120-0021,5,FULVESTRANT,500,mg,SOLUTION,ONCE,INTRAMUSCULAR,2023-01-23,2023-01-23,85,85,INDUCTION
NCT01797120,EX,NCT01797120-0021,20,PLACEBO,0,mg,TABLET,QD,ORAL,2022-10-31,2023-01-24,1,86,INDUCTION
NCT01797120,EX,NCT01797120-0022,1,FULVESTRANT,250,mg,SOLUTION,ONCE,INTRAMUSCULAR,2022-09-16,2022-09-16,1,1,INDUCTION
NCT01797120,EX,NCT01797120-0022,2,FULVESTRANT,250,mg,SOLUTION,ONCE,INTRAMUSCULAR,2022-09-30,2022-09-30,15,15,INDUCTION
NCT01797120,EX,NCT01797120-0022,3,FULVESTRANT,500,mg,SOLUTION,ONCE,INTRAMUSCULAR,2022-10-14,2022-10-14,29,29,INDUCTION
NCT01797120,EX,NCT01797120-0022,4,FULVESTRANT,500,mg,SOLUTION,ONCE,INTRAMUSCULAR,2022-11-11,2022-11-11,57,57,INDUCTION
NCT01797120,EX,NCT01797120-0022,5,FULVESTRANT,500,mg,SOLUTION,ONCE,INTRAMUSCULAR,2022-12-09,2022-12-09,85,85,INDUCTION
NCT01797120,EX,NCT01797120-0022,23,PLACEBO,0,mg,TABLET,QD,ORAL,2022-09-16,2022-12-10,1,86,INDUCTION
NCT01797120,EX,NCT01797120-0023,1,FULVESTRANT,250,mg,SOLUTION,ONCE,INTRAMUSCULAR,2022-05-04,2022-05-04,1,1,INDUCTION
NCT01797120,EX,NCT01797120-0023,2,FULVESTRANT,250,mg,SOLUTION,ONCE,INTRAMUSCULAR,2022-05-18,2022-05-18,15,15,INDUCTION
NCT01797120,EX,NCT01797120-0023,3,FULVESTRANT,500,mg,SOLUTION,ONCE,INTRAMUSCULAR,2022-06-01,2022-06-01,29,29,INDUCTION
NCT01797120,EX,NCT01797120-0023,4,FULVESTRANT,500,mg,SOLUTION,ONCE,INTRAMUSCULAR,2022-06-29,2022-06-29,57,57,INDUCTION
NCT01797120,EX,NCT01797120-0023,5,FULVESTRANT,500,mg,SOLUTION,ONCE,INTRAMUSCULAR,2022-07-27,2022-07-27,85,85,INDUCTION
NCT01797120,EX,NCT01797120-0023,6,EVEROLIMUS,10,mg,TABLET,QD,ORAL,2022-05-04,2022-07-28,1,86,INDUCTION
NCT01797120,EX,NCT01797120-0024,1,FULVESTRANT,250,mg,SOLUTION,ONCE,INTRAMUSCULAR,2022-06-24,2022-06-24,1,1,INDUCTION
NCT01797120,EX,NCT01797120-0024,2,FULVESTRANT,250,mg,SOLUTION,ONCE,INTRAMUSCULAR,2022-07-08,2022-07-08,15,15,INDUCTION
NCT01797120,EX,NCT01797120-0024,3,FULVESTRANT,500,mg,SOLUTION,ONCE,INTRAMUSCULAR,2022-07-22,2022-07-22,29,29,INDUCTION
NCT01797120,EX,NCT01797120-0024,4,FULVESTRANT,500,mg,SOLUTION,ONCE,INTRAMUSCULAR,2022-08-19,2022-08-19,57,57,INDUCTION
NCT01797120,EX,NCT01797120-0024,5,FULVESTRANT,500,mg,SOLUTION,ONCE,INTRAMUSCULAR,2022-09-16,2022-09-16,85,85,INDUCTION
NCT01797120,EX,NCT01797120-0024,6,FULVESTRANT,500,mg,SOLUTION,ONCE,INTRAMUSCULAR,2022-10-14,2022-10-14,113,113,INDUCTION
NCT01797120,EX,NCT01797120-0024,7,PLACEBO,0,mg,TABLET,QD,ORAL,2022-06-24,2022-12-10,1,170,INDUCTION
NCT01797120,EX,NCT01797120-0025,1,FULVESTRANT,250,mg,SOLUTION,ONCE,INTRAMUSCULAR,2021-08-06,2021-08-06,1,1,INDUCTION
NCT01797120,EX,NCT01797120-0025,2,FULVESTRANT,250,mg,SOLUTION,ONCE,INTRAMUSCULAR,2021-08-20,2021-08-20,15,15,INDUCTION
NCT01797120,EX,NCT01797120-0025,3,FULVESTRANT,500,mg,SOLUTION,ONCE,INTRAMUSCULAR,2021-09-03,2021-09-03,29,29,INDUCTION
NCT01797120,EX,NCT01797120-0025,4,FULVESTRANT,500,mg,SOLUTION,ONCE,INTRAMUSCULAR,2021-10-01,2021-10-01,57,57,INDUCTION
NCT01797120,EX,NCT01797120-0025,5,FULVESTRANT,500,mg,SOLUTION,ONCE,INTRAMUSCULAR,2021-10-29,2021-10-29,85,85,INDUCTION
NCT01797120,EX,NCT01797120-0025,11,EVEROLIMUS,10,mg,TABLET,QD,ORAL,2021-08-06,2021-10-30,1,86,INDUCTION
NCT01797120,EX,NCT01797120-0026,1,FULVESTRANT,250,mg,SOLUTION,ONCE,INTRAMUSCULAR,2022-10-26,2022-10-26,1,1,INDUCTION
NCT01797120,EX,NCT01797120-0026,2,FULVESTRANT,250,mg,SOLUTION,ONCE,INTRAMUSCULAR,2022-11-09,2022-11-09,15,15,INDUCTION
NCT01797120,EX,NCT01797120-0026,3,FULVESTRANT,500,mg,SOLUTION,ONCE,INTRAMUSCULAR,2022-11-23,2022-11-23,29,29,INDUCTION
NCT01797120,EX,NCT01797120-0026,4,FULVESTRANT,500,mg,SOLUTION,ONCE,INTRAMUSCULAR,2022-12-21,2022-12-21,57,57,INDUCTION
NCT01797120,EX,NCT01797120-0026,5,FULVESTRANT,500,mg,SOLUTION,ONCE,INTRAMUSCULAR,2023-01-18,2023-01-18,85,85,INDUCTION
NCT01797120,EX,NCT01797120-0026,6,FULVESTRANT,500,mg,SOLUTION,ONCE,INTRAMUSCULAR,2023-02-15,2023-02-15,113,113,INDUCTION
NCT01797120,EX,NCT01797120-0026,7,FULVESTRANT,500,mg,SOLUTION,ONCE,INTRAMUSCULAR,2023-03-15,2023-03-15,141,141,INDUCTION
NCT01797120,EX,NCT01797120-0026,8,FULVESTRANT,500,mg,SOLUTION,ONCE,INTRAMUSCULAR,2023-04-12,2023-04-12,169,169,INDUCTION
NCT01797120,EX,NCT01797120-0026,15,PLACEBO,0,mg,TABLET,QD,ORAL,2022-10-26,2023-04-13,1,170,INDUCTION
NCT01797120,EX,NCT01797120-0027,1,FULVESTRANT,250,mg,SOLUTION,ONCE,INTRAMUSCULAR,2021-11-04,2021-11-04,1,1,INDUCTION
NCT01797120,EX,NCT01797120-0027,2,FULVESTRANT,250,mg,SOLUTION,ONCE,INTRAMUSCULAR,2021-11-18,2021-11-18,15,15,INDUCTION
NCT01797120,EX,NCT01797120-0027,3,FULVESTRANT,500,mg,SOLUTION,ONCE,INTRAMUSCULAR,2021-12-02,2021-12-02,29,29,INDUCTION
NCT01797120,EX,NCT01797120-0027,4,FULVESTRANT,500,mg,SOLUTION,ONCE,INTRAMUSCULAR,2021-12-30,2021-12-30,57,57,INDUCTION
NCT01797120,EX,NCT01797120-0027,5,FULVESTRANT,500,mg,SOLUTION,ONCE,INTRAMUSCULAR,2022-01-27,2022-01-27,85,85,INDUCTION
NCT01797120,EX,NCT01797120-0027,6,FULVESTRANT,500,mg,SOLUTION,ONCE,INTRAMUSCULAR,2022-02-24,2022-02-24,113,113,INDUCTION
NCT01797120,EX,NCT01797120-0027,7,FULVESTRANT,500,mg,SOLUTION,ONCE,INTRAMUSCULAR,2022-03-24,2022-03-24,141,141,INDUCTION
NCT01797120,EX,NCT01797120-0027,8,FULVESTRANT,500,mg,SOLUTION,ONCE,INTRAMUSCULAR,2022-04-21,2022-04-21,169,169,INDUCTION
NCT01797120,EX,NCT01797120-0027,18,PLACEBO,0,mg,TABLET,QD,ORAL,2021-11-04,2022-04-22,1,170,INDUCTION
NCT01797120,EX,NCT01797120-0028,1,FULVESTRANT,250,mg,SOLUTION,ONCE,INTRAMUSCULAR,2021-06-24,2021-06-24,1,1,INDUCTION
NCT01797120,EX,NCT01797120-0028,2,FULVESTRANT,250,mg,SOLUTION,ONCE,INTRAMUSCULAR,2021-07-08,2021-07-08,15,15,INDUCTION
NCT01797120,EX,NCT01797120-0028,3,FULVESTRANT,500,mg,SOLUTION,ONCE,INTRAMUSCULAR,2021-07-22,2021-07-22,29,29,INDUCTION
NCT01797120,EX,NCT01797120-0028,4,FULVESTRANT,500,mg,SOLUTION,ONCE,INTRAMUSCULAR,2021-08-19,2021-08-19,57,57,INDUCTION
NCT01797120,EX,NCT01797120-0028,5,FULVESTRANT,500,mg,SOLUTION,ONCE,INTRAMUSCULAR,2021-09-16,2021-09-16,85,85,INDUCTION
NCT01797120,EX,NCT01797120-0028,23,PLACEBO,0,mg,TABLET,QD,ORAL,2021-06-24,2021-09-17,1,86,INDUCTION
NCT01797120,EX,NCT01797120-0029,1,FULVESTRANT,250,mg,SOLUTION,ONCE,INTRAMUSCULAR,2021-05-29,2021-05-29,1,1,INDUCTION
NCT01797120,EX,NCT01797120-0029,2,FULVESTRANT,250,mg,SOLUTION,ONCE,INTRAMUSCULAR,2021-06-12,2021-06-12,15,15,INDUCTION
NCT01797120,EX,NCT01797120-0029,3,FULVESTRANT,500,mg,SOLUTION,ONCE,INTRAMUSCULAR,2021-06-26,2021-06-26,29,29,INDUCTION
NCT01797120,EX,NCT01797120-0029,4,FULVESTRANT,500,mg,SOLUTION,ONCE,INTRAMUSCULAR,2021-07-24,2021-07-24,57,57,INDUCTION
NCT01797120,EX,NCT01797120-0029,5,FULVESTRANT,500,mg,SOLUTION,ONCE,INTRAMUSCULAR,2021-08-21,2021-08-21,85,85,INDUCTION
NCT01797120,EX,NCT01797120-0029,6,FULVESTRANT,500,mg,SOLUTION,ONCE,INTRAMUSCULAR,2021-09-18,2021-09-18,113,113,INDUCTION
NCT01797120,EX,NCT01797120-0029,7,PLACEBO,0,mg,TABLET,QD,ORAL,2021-05-29,2022-02-06,1,254,INDUCTION
NCT01797120,EX,NCT01797120-0030,1,FULVESTRANT,250,mg,SOLUTION,ONCE,INTRAMUSCULAR,2022-06-26,2022-06-26,1,1,INDUCTION
NCT01797120,EX,NCT01797120-0030,2,FULVESTRANT,250,mg,SOLUTION,ONCE,INTRAMUSCULAR,2022-07-10,2022-07-10,15,15,INDUCTION
NCT01797120,EX,NCT01797120-0030,3,FULVESTRANT,500,mg,SOLUTION,ONCE,INTRAMUSCULAR,2022-07-24,2022-07-24,29,29,INDUCTION
NCT01797120,EX,NCT01797120-0030,4,FULVESTRANT,500,mg,SOLUTION,ONCE,INTRAMUSCULAR,2022-08-21,2022-08-21,57,57,INDUCTION
NCT01797120,EX,NCT01797120-0030,5,FULVESTRANT,500,mg,SOLUTION,ONCE,INTRAMUSCULAR,2022-09-18,2022-09-18,85,85,INDUCTION
NCT01797120,EX,NCT01797120-0030,6,FULVESTRANT,500,mg,SOLUTION,ONCE,INTRAMUSCULAR,2022-10-16,2022-10-16,113,113,INDUCTION
NCT01797120,EX,NCT01797120-0030,7,FULVESTRANT,500,mg,SOLUTION,ONCE,INTRAMUSCULAR,2022-11-13,2022-11-13,141,141,INDUCTION
NCT01797120,EX,NCT01797120-0030,8,FULVESTRANT,500,mg,SOLUTION,ONCE,INTRAMUSCULAR,2022-12-11,2022-12-11,169,169,INDUCTION
NCT01797120,EX,NCT01797120-0030,9,FULVESTRANT,500,mg,SOLUTION,ONCE,INTRAMUSCULAR,2023-01-08,2023-01-08,197,197,INDUCTION
NCT01797120,EX,NCT01797120-0030,10,FULVESTRANT,500,mg,SOLUTION,ONCE,INTRAMUSCULAR,2023-02-05,2023-02-05,225,225,INDUCTION
NCT01797120,EX,NCT01797120-0030,11,FULVESTRANT,500,mg,SOLUTION,ONCE,INTRAMUSCULAR,2023-03-05,2023-03-05,253,253,INDUCTION
NCT01797120,EX,NCT01797120-0030,12,EVEROLIMUS,10,mg,TABLET,QD,ORAL,2022-06-26,2023-03-06,1,254,INDUCTION
NCT01797120,EX,NCT01797120-0031,1,FULVESTRANT,250,mg,SOLUTION,ONCE,INTRAMUSCULAR,2022-08-03,2022-08-03,1,1,INDUCTION
NCT01797120,EX,NCT01797120-0031,2,FULVESTRANT,250,mg,SOLUTION,ONCE,INTRAMUSCULAR,2022-08-17,2022-08-17,15,15,INDUCTION
NCT01797120,EX,NCT01797120-0031,3,FULVESTRANT,500,mg,SOLUTION,ONCE,INTRAMUSCULAR,2022-08-31,2022-08-31,29,29,INDUCTION
NCT01797120,EX,NCT01797120-0031,4,FULVESTRANT,500,mg,SOLUTION,ONCE,INTRAMUSCULAR,2022-09-28,2022-09-28,57,57,INDUCTION
NCT01797120,EX,NCT01797120-0031,5,FULVESTRANT,500,mg,SOLUTION,ONCE,INTRAMUSCULAR,2022-10-26,2022-10-26,85,85,INDUCTION
NCT01797120,EX,NCT01797120-0031,10,EVEROLIMUS,10,mg,TABLET,QD,ORAL,2022-08-03,2022-10-27,1,86,INDUCTION
NCT01797120,EX,NCT01797120-0032,1,FULVESTRANT,250,mg,SOLUTION,ONCE,INTRAMUSCULAR,2022-07-02,2022-07-02,1,1,INDUCTION
NCT01797120,EX,NCT01797120-0032,2,FULVESTRANT,250,mg,SOLUTION,ONCE,INTRAMUSCULAR,2022-07-16,2022-07-16,15,15,INDUCTION
NCT01797120,EX,NCT01797120-0032,3,FULVESTRANT,500,mg,SOLUTION,ONCE,INTRAMUSCULAR,2022-07-30,2022-07-30,29,29,INDUCTION
NCT01797120,EX,NCT01797120-0032,4,FULVESTRANT,500,mg,SOLUTION,ONCE,INTRAMUSCULAR,2022-08-27,2022-08-27,57,57,INDUCTION
NCT01797120,EX,NCT01797120-0032,5,FULVESTRANT,500,mg,SOLUTION,ONCE,INTRAMUSCULAR,2022-09-24,2022-09-24,85,85,INDUCTION
NCT01797120,EX,NCT01797120-0032,6,FULVESTRANT,500,mg,SOLUTION,ONCE,INTRAMUSCULAR,2022-10-22,2022-10-22,113,113,INDUCTION
NCT01797120,EX,NCT01797120-0032,7,FULVESTRANT,500,mg,SOLUTION,ONCE,INTRAMUSCULAR,2022-11-19,2022-11-19,141,141,INDUCTION
NCT01797120,EX,NCT01797120-0032,8,FULVESTRANT,500,mg,SOLUTION,ONCE,INTRAMUSCULAR,2022-12-17,2022-12-17,169,169,INDUCTION
NCT01797120,EX,NCT01797120-0032,9,FULVESTRANT,500,mg,SOLUTION,ONCE,INTRAMUSCULAR,2023-01-14,2023-01-14,197,197,INDUCTION
NCT01797120,EX,NCT01797120-0032,10,FULVESTRANT,500,mg,SOLUTION,ONCE,INTRAMUSCULAR,2023-02-11,2023-02-11,225,225,INDUCTION
NCT01797120,EX,NCT01797120-0032,11,FULVESTRANT,500,mg,SOLUTION,ONCE,INTRAMUSCULAR,2023-03-11,2023-03-11,253,253,INDUCTION
NCT01797120,EX,NCT01797120-0032,12,FULVESTRANT,500,mg,SOLUTION,ONCE,INTRAMUSCULAR,2023-04-08,2023-04-08,281,281,INDUCTION
NCT01797120,EX,NCT01797120-0032,13,FULVESTRANT,500,mg,SOLUTION,ONCE,INTRAMUSCULAR,2023-05-06,2023-05-06,309,309,INDUCTION
NCT01797120,EX,NCT01797120-0032,14,FULVESTRANT,500,mg,SOLUTION,ONCE,INTRAMUSCULAR,2023-06-03,2023-06-03,337,337,INDUCTION
NCT01797120,EX,NCT01797120-0032,15,FULVESTRANT,500,mg,SOLUTION,ONCE,INTRAMUSCULAR,2023-07-01,2023-07-01,365,365,CONTINUATION
NCT01797120,EX,NCT01797120-0032,16,FULVESTRANT,500,mg,SOLUTION,ONCE,INTRAMUSCULAR,2023-07-29,2023-07-29,393,393,CONTINUATION
NCT01797120,EX,NCT01797120-0032,17,FULVESTRANT,500,mg,SOLUTION,ONCE,INTRAMUSCULAR,2023-08-26,2023-08-26,421,421,CONTINUATION
NCT01797120,EX,NCT01797120-0032,18,FULVESTRANT,500,mg,SOLUTION,ONCE,INTRAMUSCULAR,2023-09-23,2023-09-23,449,449,CONTINUATION
NCT01797120,EX,NCT01797120-0032,19,FULVESTRANT,500,mg,SOLUTION,ONCE,INTRAMUSCULAR,2023-10-21,2023-10-21,477,477,CONTINUATION
NCT01797120,EX,NCT01797120-0032,20,EVEROLIMUS,10,mg,TABLET,QD,ORAL,2022-07-02,2025-06-29,1,1094,INDUCTION
NCT01797120,EX,NCT01797120-0033,1,FULVESTRANT,250,mg,SOLUTION,ONCE,INTRAMUSCULAR,2022-01-29,2022-01-29,1,1,INDUCTION
NCT01797120,EX,NCT01797120-0033,2,FULVESTRANT,250,mg,SOLUTION,ONCE,INTRAMUSCULAR,2022-02-12,2022-02-12,15,15,INDUCTION
NCT01797120,EX,NCT01797120-0033,3,FULVESTRANT,500,mg,SOLUTION,ONCE,INTRAMUSCULAR,2022-02-26,2022-02-26,29,29,INDUCTION
NCT01797120,EX,NCT01797120-0033,4,FULVESTRANT,500,mg,SOLUTION,ONCE,INTRAMUSCULAR,2022-03-26,2022-03-26,57,57,INDUCTION
NCT01797120,EX,NCT01797120-0033,5,FULVESTRANT,500,mg,SOLUTION,ONCE,INTRAMUSCULAR,2022-04-23,2022-04-23,85,85,INDUCTION
NCT01797120,EX,NCT01797120-0033,6,FULVESTRANT,500,mg,SOLUTION,ONCE,INTRAMUSCULAR,2022-05-21,2022-05-21,113,113,INDUCTION
NCT01797120,EX,NCT01797120-0033,7,FULVESTRANT,500,mg,SOLUTION,ONCE,INTRAMUSCULAR,2022-06-18,2022-06-18,141,141,INDUCTION
NCT01797120,EX,NCT01797120-0033,8,PLACEBO,0,mg,TABLET,QD,ORAL,2022-01-29,2023-03-26,1,422,INDUCTION
NCT01797120,EX,NCT01797120-0034,1,FULVESTRANT,250,mg,SOLUTION,ONCE,INTRAMUSCULAR,2021-03-15,2021-03-15,1,1,INDUCTION
NCT01797120,EX,NCT01797120-0034,2,FULVESTRANT,250,mg,SOLUTION,ONCE,INTRAMUSCULAR,2021-03-29,2021-03-29,15,15,INDUCTION
NCT01797120,EX,NCT01797120-0034,3,FULVESTRANT,500,mg,SOLUTION,ONCE,INTRAMUSCULAR,2021-04-12,2021-04-12,29,29,INDUCTION
NCT01797120,EX,NCT01797120-0034,4,FULVESTRANT,500,mg,SOLUTION,ONCE,INTRAMUSCULAR,2021-05-10,2021-05-10,57,57,INDUCTION
NCT01797120,EX,NCT01797120-0034,5,FULVESTRANT,500,mg,SOLUTION,ONCE,INTRAMUSCULAR,2021-06-07,2021-06-07,85,85,INDUCTION
NCT01797120,EX,NCT01797120-0034,6,FULVESTRANT,500,mg,SOLUTION,ONCE,INTRAMUSCULAR,2021-07-05,2021-07-05,113,113,INDUCTION
NCT01797120,EX,NCT01797120-0034,7,FULVESTRANT,500,mg,SOLUTION,ONCE,INTRAMUSCULAR,2021-08-02,2021-08-02,141,141,INDUCTION
NCT01797120,EX,NCT01797120-0034,8,FULVESTRANT,500,mg,SOLUTION,ONCE,INTRAMUSCULAR,2021-08-30,2021-08-30,169,169,INDUCTION
NCT01797120,EX,NCT01797120-0034,9,FULVESTRANT,500,mg,SOLUTION,ONCE,INTRAMUSCULAR,2021-09-27,2021-09-27,197,197,INDUCTION
NCT01797120,EX,NCT01797120-0034,10,FULVESTRANT,500,mg,SOLUTION,ONCE,INTRAMUSCULAR,2021-10-25,2021-10-25,225,225,INDUCTION
NCT01797120,EX,NCT01797120-0034,11,FULVESTRANT,500,mg,SOLUTION,ONCE,INTRAMUSCULAR,2021-11-22,2021-11-22,253,253,INDUCTION
NCT01797120,EX,NCT01797120-0034,12,FULVESTRANT,500,mg,SOLUTION,ONCE,INTRAMUSCULAR,2021-12-20,2021-12-20,281,281,INDUCTION
NCT01797120,EX,NCT01797120-0034,13,FULVESTRANT,500,mg,SOLUTION,ONCE,INTRAMUSCULAR,2022-01-17,2022-01-17,309,309,INDUCTION
NCT01797120,EX,NCT01797120-0034,14,FULVESTRANT,500,mg,SOLUTION,ONCE,INTRAMUSCULAR,2022-02-14,2022-02-14,337,337,INDUCTION
NCT01797120,EX,NCT01797120-0034,22,PLACEBO,0,mg,TABLET,QD,ORAL,2021-03-15,2022-02-15,1,338,INDUCTION
NCT01797120,EX,NCT01797120-0035,1,FULVESTRANT,250,mg,SOLUTION,ONCE,INTRAMUSCULAR,2021-10-25,2021-10-25,1,1,INDUCTION
NCT01797120,EX,NCT01797120-0035,2,FULVESTRANT,250,mg,SOLUTION,ONCE,INTRAMUSCULAR,2021-11-08,2021-11-08,15,15,INDUCTION
NCT01797120,EX,NCT01797120-0035,3,FULVESTRANT,500,mg,SOLUTION,ONCE,INTRAMUSCULAR,2021-11-22,2021-11-22,29,29,INDUCTION
NCT01797120,EX,NCT01797120-0035,4,FULVESTRANT,500,mg,SOLUTION,ONCE,INTRAMUSCULAR,2021-12-20,2021-12-20,57,57,INDUCTION
NCT01797120,EX,NCT01797120-0035,5,FULVESTRANT,500,mg,SOLUTION,ONCE,INTRAMUSCULAR,2022-01-17,2022-01-17,85,85,INDUCTION
NCT01797120,EX,NCT01797120-0035,6,FULVESTRANT,500,mg,SOLUTION,ONCE,INTRAMUSCULAR,2022-02-14,2022-02-14,113,113,INDUCTION
NCT01797120,EX,NCT01797120-0035,7,FULVESTRANT,500,mg,SOLUTION,ONCE,INTRAMUSCULAR,2022-03-14,2022-03-14,141,141,INDUCTION
NCT01797120,EX,NCT01797120-0035,8,FULVESTRANT,500,mg,SOLUTION,ONCE,INTRAMUSCULAR,2022-04-11,2022-04-11,169,169,INDUCTION
NCT01797120,EX,NCT01797120-0035,9,FULVESTRANT,500,mg,SOLUTION,ONCE,INTRAMUSCULAR,2022-05-09,2022-05-09,197,197,INDUCTION
NCT01797120,EX,NCT01797120-0035,10,FULVESTRANT,500,mg,SOLUTION,ONCE,INTRAMUSCULAR,2022-06-06,2022-06-06,225,225,INDUCTION
NCT01797120,EX,NCT01797120-0035,11,FULVESTRANT,500,mg,SOLUTION,ONCE,INTRAMUSCULAR,2022-07-04,2022-07-04,253,253,INDUCTION
NCT01797120,EX,NCT01797120-0035,12,FULVESTRANT,500,mg,SOLUTION,ONCE,INTRAMUSCULAR,2022-08-01,2022-08-01,281,281,INDUCTION
NCT01797120,EX,NCT01797120-0035,13,FULVESTRANT,500,mg,SOLUTION,ONCE,INTRAMUSCULAR,2022-08-29,2022-08-29,309,309,INDUCTION
NCT01797120,EX,NCT01797120-0035,14,FULVESTRANT,500,mg,SOLUTION,ONCE,INTRAMUSCULAR,2022-09-26,2022-09-26,337,337,INDUCTION
NCT01797120,EX,NCT01797120-0035,15,FULVESTRANT,500,mg,SOLUTION,ONCE,INTRAMUSCULAR,2022-10-24,2022-10-24,365,365,CONTINUATION
NCT01797120,EX,NCT01797120-0035,16,FULVESTRANT,500,mg,SOLUTION,ONCE,INTRAMUSCULAR,2022-11-21,2022-11-21,393,393,CONTINUATION
NCT01797120,EX,NCT01797120-0035,17,FULVESTRANT,500,mg,SOLUTION,ONCE,INTRAMUSCULAR,2022-12-19,2022-12-19,421,421,CONTINUATION
NCT01797120,EX,NCT01797120-0035,20,EVEROLIMUS,10,mg,TABLET,QD,ORAL,2021-10-25,2022-12-20,1,422,INDUCTION
NCT01797120,EX,NCT01797120-0036,1,FULVESTRANT,250,mg,SOLUTION,ONCE,INTRAMUSCULAR,2022-01-30,2022-01-30,1,1,INDUCTION
NCT01797120,EX,NCT01797120-0036,2,FULVESTRANT,250,mg,SOLUTION,ONCE,INTRAMUSCULAR,2022-02-13,2022-02-13,15,15,INDUCTION
NCT01797120,EX,NCT01797120-0036,3,FULVESTRANT,500,mg,SOLUTION,ONCE,INTRAMUSCULAR,2022-02-27,2022-02-27,29,29,INDUCTION
NCT01797120,EX,NCT01797120-0036,4,FULVESTRANT,500,mg,SOLUTION,ONCE,INTRAMUSCULAR,2022-03-27,2022-03-27,57,57,INDUCTION
NCT01797120,EX,NCT01797120-0036,5,FULVESTRANT,500,mg,SOLUTION,ONCE,INTRAMUSCULAR,2022-04-24,2022-04-24,85,85,INDUCTION
NCT01797120,EX,NCT01797120-0036,6,FULVESTRANT,500,mg,SOLUTION,ONCE,INTRAMUSCULAR,2022-05-22,2022-05-22,113,113,INDUCTION
NCT01797120,EX,NCT01797120-0036,7,FULVESTRANT,500,mg,SOLUTION,ONCE,INTRAMUSCULAR,2022-06-19,2022-06-19,141,141,INDUCTION
NCT01797120,EX,NCT01797120-0036,8,FULVESTRANT,500,mg,SOLUTION,ONCE,INTRAMUSCULAR,2022-07-17,2022-07-17,169,169,INDUCTION
NCT01797120,EX,NCT01797120-0036,9,FULVESTRANT,500,mg,SOLUTION,ONCE,INTRAMUSCULAR,2022-08-14,2022-08-14,197,197,INDUCTION
NCT01797120,EX,NCT01797120-0036,10,FULVESTRANT,500,mg,SOLUTION,ONCE,INTRAMUSCULAR,2022-09-11,2022-09-11,225,225,INDUCTION
NCT01797120,EX,NCT01797120-0036,11,FULVESTRANT,500,mg,SOLUTION,ONCE,INTRAMUSCULAR,2022-10-09,2022-10-09,253,253,INDUCTION
NCT01797120,EX,NCT01797120-0036,22,PLACEBO,0,mg,TABLET,QD,ORAL,2022-01-30,2022-10-10,1,254,INDUCTION
NCT01797120,EX,NCT01797120-0037,1,FULVESTRANT,250,mg,SOLUTION,ONCE,INTRAMUSCULAR,2022-06-24,2022-06-24,1,1,INDUCTION
NCT01797120,EX,NCT01797120-0037,2,FULVESTRANT,250,mg,SOLUTION,ONCE,INTRAMUSCULAR,2022-07-08,2022-07-08,15,15,INDUCTION
NCT01797120,EX,NCT01797120-0037,3,FULVESTRANT,500,mg,SOLUTION,ONCE,INTRAMUSCULAR,2022-07-22,2022-07-22,29,29,INDUCTION
NCT01797120,EX,NCT01797120-0037,4,FULVESTRANT,500,mg,SOLUTION,ONCE,INTRAMUSCULAR,2022-08-19,2022-08-19,57,57,INDUCTION
NCT01797120,EX,NCT01797120-0037,5,FULVESTRANT,500,mg,SOLUTION,ONCE,INTRAMUSCULAR,2022-09-16,2022-09-16,85,85,INDUCTION
NCT01797120,EX,NCT01797120-0037,6,FULVESTRANT,500,mg,SOLUTION,ONCE,INTRAMUSCULAR,2022-10-14,2022-10-14,113,113,INDUCTION
NCT01797120,EX,NCT01797120-0037,7,FULVESTRANT,500,mg,SOLUTION,ONCE,INTRAMUSCULAR,2022-11-11,2022-11-11,141,141,INDUCTION
NCT01797120,EX,NCT01797120-0037,8,FULVESTRANT,500,mg,SOLUTION,ONCE,INTRAMUSCULAR,2022-12-09,2022-12-09,169,169,INDUCTION
NCT01797120,EX,NCT01797120-0037,9,FULVESTRANT,500,mg,SOLUTION,ONCE,INTRAMUSCULAR,2023-01-06,2023-01-06,197,197,INDUCTION
NCT01797120,EX,NCT01797120-0037,10,FULVESTRANT,500,mg,SOLUTION,ONCE,INTRAMUSCULAR,2023-02-03,2023-02-03,225,225,INDUCTION
NCT01797120,EX,NCT01797120-0037,11,FULVESTRANT,500,mg,SOLUTION,ONCE,INTRAMUSCULAR,2023-03-03,2023-03-03,253,253,INDUCTION
NCT01797120,EX,NCT01797120-0037,12,FULVESTRANT,500,mg,SOLUTION,ONCE,INTRAMUSCULAR,2023-03-31,2023-03-31,281,281,INDUCTION
NCT01797120,EX,NCT01797120-0037,13,FULVESTRANT,500,mg,SOLUTION,ONCE,INTRAMUSCULAR,2023-04-28,2023-04-28,309,309,INDUCTION
NCT01797120,EX,NCT01797120-0037,14,FULVESTRANT,500,mg,SOLUTION,ONCE,INTRAMUSCULAR,2023-05-26,2023-05-26,337,337,INDUCTION
NCT01797120,EX,NCT01797120-0037,15,FULVESTRANT,500,mg,SOLUTION,ONCE,INTRAMUSCULAR,2023-06-23,2023-06-23,365,365,CONTINUATION
NCT01797120,EX,NCT01797120-0037,16,FULVESTRANT,500,mg,SOLUTION,ONCE,INTRAMUSCULAR,2023-07-21,2023-07-21,393,393,CONTINUATION
NCT01797120,EX,NCT01797120-0037,17,FULVESTRANT,500,mg,SOLUTION,ONCE,INTRAMUSCULAR,2023-08-18,2023-08-18,421,421,CONTINUATION
NCT01797120,EX,NCT01797120-0037,18,FULVESTRANT,500,mg,SOLUTION,ONCE,INTRAMUSCULAR,2023-09-15,2023-09-15,449,449,CONTINUATION
NCT01797120,EX,NCT01797120-0037,19,FULVESTRANT,500,mg,SOLUTION,ONCE,INTRAMUSCULAR,2023-10-13,2023-10-13,477,477,CONTINUATION
NCT01797120,EX,NCT01797120-0037,20,FULVESTRANT,500,mg,SOLUTION,ONCE,INTRAMUSCULAR,2023-11-10,2023-11-10,505,505,CONTINUATION
NCT01797120,EX,NCT01797120-0037,21,FULVESTRANT,500,mg,SOLUTION,ONCE,INTRAMUSCULAR,2023-12-08,2023-12-08,533,533,CONTINUATION
NCT01797120,EX,NCT01797120-0037,22,FULVESTRANT,500,mg,SOLUTION,ONCE,INTRAMUSCULAR,2024-01-05,2024-01-05,561,561,CONTINUATION
NCT01797120,EX,NCT01797120-0037,23,PLACEBO,0,mg,TABLET,QD,ORAL,2022-06-24,2024-01-28,1,584,INDUCTION
NCT01797120,EX,NCT01797120-0038,1,FULVESTRANT,250,mg,SOLUTION,ONCE,INTRAMUSCULAR,2022-03-06,2022-03-06,1,1,INDUCTION
NCT01797120,EX,NCT01797120-0038,2,FULVESTRANT,250,mg,SOLUTION,ONCE,INTRAMUSCULAR,2022-03-20,2022-03-20,15,15,INDUCTION
NCT01797120,EX,NCT01797120-0038,3,FULVESTRANT,500,mg,SOLUTION,ONCE,INTRAMUSCULAR,2022-04-03,2022-04-03,29,29,INDUCTION
NCT01797120,EX,NCT01797120-0038,4,FULVESTRANT,500,mg,SOLUTION,ONCE,INTRAMUSCULAR,2022-05-01,2022-05-01,57,57,INDUCTION
NCT01797120,EX,NCT01797120-0038,5,FULVESTRANT,500,mg,SOLUTION,ONCE,INTRAMUSCULAR,2022-05-29,2022-05-29,85,85,INDUCTION
NCT01797120,EX,NCT01797120-0038,6,FULVESTRANT,500,mg,SOLUTION,ONCE,INTRAMUSCULAR,2022-06-26,2022-06-26,113,113,INDUCTION
NCT01797120,EX,NCT01797120-0038,7,FULVESTRANT,500,mg,SOLUTION,ONCE,INTRAMUSCULAR,2022-07-24,2022-07-24,141,141,INDUCTION
NCT01797120,EX,NCT01797120-0038,8,FULVESTRANT,500,mg,SOLUTION,ONCE,INTRAMUSCULAR,2022-08-21,2022-08-21,169,169,INDUCTION
NCT01797120,EX,NCT01797120-0038,9,FULVESTRANT,500,mg,SOLUTION,ONCE,INTRAMUSCULAR,2022-09-18,2022-09-18,197,197,INDUCTION
NCT01797120,EX,NCT01797120-0038,10,FULVESTRANT,500,mg,SOLUTION,ONCE,INTRAMUSCULAR,2022-10-16,2022-10-16,225,225,INDUCTION
NCT01797120,EX,NCT01797120-0038,11,FULVESTRANT,500,mg,SOLUTION,ONCE,INTRAMUSCULAR,2022-11-13,2022-11-13,253,253,INDUCTION
NCT01797120,EX,NCT01797120-0038,12,FULVESTRANT,500,mg,SOLUTION,ONCE,INTRAMUSCULAR,2022-12-11,2022-12-11,281,281,INDUCTION
NCT01797120,EX,NCT01797120-0038,13,FULVESTRANT,500,mg,SOLUTION,ONCE,INTRAMUSCULAR,2023-01-08,2023-01-08,309,309,INDUCTION
NCT01797120,EX,NCT01797120-0038,14,FULVESTRANT,500,mg,SOLUTION,ONCE,INTRAMUSCULAR,2023-02-05,2023-02-05,337,337,INDUCTION
NCT01797120,EX,NCT01797120-0038,15,FULVESTRANT,500,mg,SOLUTION,ONCE,INTRAMUSCULAR,2023-03-05,2023-03-05,365,365,CONTINUATION
NCT01797120,EX,NCT01797120-0038,16,EVEROLIMUS,10,mg,TABLET,QD,ORAL,2022-03-06,2024-06-24,1,842,INDUCTION
NCT01797120,EX,NCT01797120-0039,1,FULVESTRANT,250,mg,SOLUTION,ONCE,INTRAMUSCULAR,2021-07-19,2021-07-19,1,1,INDUCTION
NCT01797120,EX,NCT01797120-0039,2,FULVESTRANT,250,mg,SOLUTION,ONCE,INTRAMUSCULAR,2021-08-02,2021-08-02,15,15,INDUCTION
NCT01797120,EX,NCT01797120-0039,3,FULVESTRANT,500,mg,SOLUTION,ONCE,INTRAMUSCULAR,2021-08-16,2021-08-16,29,29,INDUCTION
NCT01797120,EX,NCT01797120-0039,4,FULVESTRANT,500,mg,SOLUTION,ONCE,INTRAMUSCULAR,2021-09-13,2021-09-13,57,57,INDUCTION
NCT01797120,EX,NCT01797120-0039,5,FULVESTRANT,500,mg,SOLUTION,ONCE,INTRAMUSCULAR,2021-10-11,2021-10-11,85,85,INDUCTION
NCT01797120,EX,NCT01797120-0039,6,FULVESTRANT,500,mg,SOLUTION,ONCE,INTRAMUSCULAR,2021-11-08,2021-11-08,113,113,INDUCTION
NCT01797120,EX,NCT01797120-0039,7,FULVESTRANT,500,mg,SOLUTION,ONCE,INTRAMUSCULAR,2021-12-06,2021-12-06,141,141,INDUCTION
NCT01797120,EX,NCT01797120-0039,8,FULVESTRANT,500,mg,SOLUTION,ONCE,INTRAMUSCULAR,2022-01-03,2022-01-03,169,169,INDUCTION
NCT01797120,EX,NCT01797120-0039,9,FULVESTRANT,500,mg,SOLUTION,ONCE,INTRAMUSCULAR,2022-01-31,2022-01-31,197,197,INDUCTION
NCT01797120,EX,NCT01797120-0039,10,FULVESTRANT,500,mg,SOLUTION,ONCE,INTRAMUSCULAR,2022-02-28,2022-02-28,225,225,INDUCTION
NCT01797120,EX,NCT01797120-0039,11,FULVESTRANT,500,mg,SOLUTION,ONCE,INTRAMUSCULAR,2022-03-28,2022-03-28,253,253,INDUCTION
NCT01797120,EX,NCT01797120-0039,13,EVEROLIMUS,10,mg,TABLET,QD,ORAL,2021-07-19,2022-03-29,1,254,INDUCTION
NCT01797120,EX,NCT01797120-0040,1,FULVESTRANT,250,mg,SOLUTION,ONCE,INTRAMUSCULAR,2022-02-28,2022-02-28,1,1,INDUCTION
NCT01797120,EX,NCT01797120-0040,2,FULVESTRANT,250,mg,SOLUTION,ONCE,INTRAMUSCULAR,2022-03-14,2022-03-14,15,15,INDUCTION
NCT01797120,EX,NCT01797120-0040,3,FULVESTRANT,500,mg,SOLUTION,ONCE,INTRAMUSCULAR,2022-03-28,2022-03-28,29,29,INDUCTION
NCT01797120,EX,NCT01797120-0040,4,FULVESTRANT,500,mg,SOLUTION,ONCE,INTRAMUSCULAR,2022-04-25,2022-04-25,57,57,INDUCTION
NCT01797120,EX,NCT01797120-0040,5,FULVESTRANT,500,mg,SOLUTION,ONCE,INTRAMUSCULAR,2022-05-23,2022-05-23,85,85,INDUCTION
NCT01797120,EX,NCT01797120-0040,6,FULVESTRANT,500,mg,SOLUTION,ONCE,INTRAMUSCULAR,2022-06-20,2022-06-20,113,113,INDUCTION
NCT01797120,EX,NCT01797120-0040,7,FULVESTRANT,500,mg,SOLUTION,ONCE,INTRAMUSCULAR,2022-07-18,2022-07-18,141,141,INDUCTION
NCT01797120,EX,NCT01797120-0040,8,FULVESTRANT,500,mg,SOLUTION,ONCE,INTRAMUSCULAR,2022-08-15,2022-08-15,169,169,INDUCTION
NCT01797120,EX,NCT01797120-0040,14,PLACEBO,0,mg,TABLET,QD,ORAL,2022-02-28,2022-08-16,1,170,INDUCTION
NCT01797120,EX,NCT01797120-0041,1,FULVESTRANT,250,mg,SOLUTION,ONCE,INTRAMUSCULAR,2021-03-03,2021-03-03,1,1,INDUCTION
NCT01797120,EX,NCT01797120-0041,2,FULVESTRANT,250,mg,SOLUTION,ONCE,INTRAMUSCULAR,2021-03-17,2021-03-17,15,15,INDUCTION
NCT01797120,EX,NCT01797120-0041,3,FULVESTRANT,500,mg,SOLUTION,ONCE,INTRAMUSCULAR,2021-03-31,2021-03-31,29,29,INDUCTION
NCT01797120,EX,NCT01797120-0041,4,FULVESTRANT,500,mg,SOLUTION,ONCE,INTRAMUSCULAR,2021-04-28,2021-04-28,57,57,INDUCTION
NCT01797120,EX,NCT01797120-0041,5,FULVESTRANT,500,mg,SOLUTION,ONCE,INTRAMUSCULAR,2021-05-26,2021-05-26,85,85,INDUCTION
NCT01797120,EX,NCT01797120-0041,6,FULVESTRANT,500,mg,SOLUTION,ONCE,INTRAMUSCULAR,2021-06-23,2021-06-23,113,113,INDUCTION
NCT01797120,EX,NCT01797120-0041,7,FULVESTRANT,500,mg,SOLUTION,ONCE,INTRAMUSCULAR,2021-07-21,2021-07-21,141,141,INDUCTION
NCT01797120,EX,NCT01797120-0041,8,FULVESTRANT,500,mg,SOLUTION,ONCE,INTRAMUSCULAR,2021-08-18,2021-08-18,169,169,INDUCTION
NCT01797120,EX,NCT01797120-0041,22,PLACEBO,0,mg,TABLET,QD,ORAL,2021-03-03,2021-08-19,1,170,INDUCTION
NCT01797120,EX,NCT01797120-0042,1,FULVESTRANT,250,mg,SOLUTION,ONCE,INTRAMUSCULAR,2021-12-08,2021-12-08,1,1,INDUCTION
NCT01797120,EX,NCT01797120-0042,2,FULVESTRANT,250,mg,SOLUTION,ONCE,INTRAMUSCULAR,2021-12-22,2021-12-22,15,15,INDUCTION
NCT01797120,EX,NCT01797120-0042,3,FULVESTRANT,500,mg,SOLUTION,ONCE,INTRAMUSCULAR,2022-01-05,2022-01-05,29,29,INDUCTION
NCT01797120,EX,NCT01797120-0042,4,FULVESTRANT,500,mg,SOLUTION,ONCE,INTRAMUSCULAR,2022-02-02,2022-02-02,57,57,INDUCTION
NCT01797120,EX,NCT01797120-0042,5,FULVESTRANT,500,mg,SOLUTION,ONCE,INTRAMUSCULAR,2022-03-02,2022-03-02,85,85,INDUCTION
NCT01797120,EX,NCT01797120-0042,9,EVEROLIMUS,10,mg,TABLET,QD,ORAL,2021-12-08,2022-03-03,1,86,INDUCTION
NCT01797120,EX,NCT01797120-0043,1,FULVESTRANT,250,mg,SOLUTION,ONCE,INTRAMUSCULAR,2021-02-14,2021-02-14,1,1,INDUCTION
NCT01797120,EX,NCT01797120-0043,2,FULVESTRANT,250,mg,SOLUTION,ONCE,INTRAMUSCULAR,2021-02-28,2021-02-28,15,15,INDUCTION
NCT01797120,EX,NCT01797120-0043,3,FULVESTRANT,500,mg,SOLUTION,ONCE,INTRAMUSCULAR,2021-03-14,2021-03-14,29,29,INDUCTION
NCT01797120,EX,NCT01797120-0043,4,FULVESTRANT,500,mg,SOLUTION,ONCE,INTRAMUSCULAR,2021-04-11,2021-04-11,57,57,INDUCTION
NCT01797120,EX,NCT01797120-0043,5,FULVESTRANT,500,mg,SOLUTION,ONCE,INTRAMUSCULAR,2021-05-09,2021-05-09,85,85,INDUCTION
NCT01797120,EX,NCT01797120-0043,6,FULVESTRANT,500,mg,SOLUTION,ONCE,INTRAMUSCULAR,2021-06-06,2021-06-06,113,113,INDUCTION
NCT01797120,EX,NCT01797120-0043,7,FULVESTRANT,500,mg,SOLUTION,ONCE,INTRAMUSCULAR,2021-07-04,2021-07-04,141,141,INDUCTION
NCT01797120,EX,NCT01797120-0043,8,FULVESTRANT,500,mg,SOLUTION,ONCE,INTRAMUSCULAR,2021-08-01,2021-08-01,169,169,INDUCTION
NCT01797120,EX,NCT01797120-0043,9,FULVESTRANT,500,mg,SOLUTION,ONCE,INTRAMUSCULAR,2021-08-29,2021-08-29,197,197,INDUCTION
NCT01797120,EX,NCT01797120-0043,10,FULVESTRANT,500,mg,SOLUTION,ONCE,INTRAMUSCULAR,2021-09-26,2021-09-26,225,225,INDUCTION
NCT01797120,EX,NCT01797120-0043,11,FULVESTRANT,500,mg,SOLUTION,ONCE,INTRAMUSCULAR,2021-10-24,2021-10-24,253,253,INDUCTION
NCT01797120,EX,NCT01797120-0043,12,EVEROLIMUS,10,mg,TABLET,QD,ORAL,2021-02-14,2023-03-13,1,758,INDUCTION
NCT01797120,EX,NCT01797120-0044,1,FULVESTRANT,250,mg,SOLUTION,ONCE,INTRAMUSCULAR,2021-03-30,2021-03-30,1,1,INDUCTION
NCT01797120,EX,NCT01797120-0044,2,FULVESTRANT,250,mg,SOLUTION,ONCE,INTRAMUSCULAR,2021-04-13,2021-04-13,15,15,INDUCTION
NCT01797120,EX,NCT01797120-0044,3,FULVESTRANT,500,mg,SOLUTION,ONCE,INTRAMUSCULAR,2021-04-27,2021-04-27,29,29,INDUCTION
NCT01797120,EX,NCT01797120-0044,4,FULVESTRANT,500,mg,SOLUTION,ONCE,INTRAMUSCULAR,2021-05-25,2021-05-25,57,57,INDUCTION
NCT01797120,EX,NCT01797120-0044,5,FULVESTRANT,500,mg,SOLUTION,ONCE,INTRAMUSCULAR,2021-06-22,2021-06-22,85,85,INDUCTION
NCT01797120,EX,NCT01797120-0044,17,PLACEBO,0,mg,TABLET,QD,ORAL,2021-03-30,2021-06-23,1,86,INDUCTION
NCT01797120,EX,NCT01797120-0045,1,FULVESTRANT,250,mg,SOLUTION,ONCE,INTRAMUSCULAR,2021-02-03,2021-02-03,1,1,INDUCTION
NCT01797120,EX,NCT01797120-0045,2,FULVESTRANT,250,mg,SOLUTION,ONCE,INTRAMUSCULAR,2021-02-17,2021-02-17,15,15,INDUCTION
NCT01797120,EX,NCT01797120-0045,3,FULVESTRANT,500,mg,SOLUTION,ONCE,INTRAMUSCULAR,2021-03-03,2021-03-03,29,29,INDUCTION
NCT01797120,EX,NCT01797120-0045,4,FULVESTRANT,500,mg,SOLUTION,ONCE,INTRAMUSCULAR,2021-03-31,2021-03-31,57,57,INDUCTION
NCT01797120,EX,NCT01797120-0045,5,FULVESTRANT,500,mg,SOLUTION,ONCE,INTRAMUSCULAR,2021-04-28,2021-04-28,85,85,INDUCTION
NCT01797120,EX,NCT01797120-0045,18,PLACEBO,0,mg,TABLET,QD,ORAL,2021-02-03,2021-04-29,1,86,INDUCTION
NCT01797120,EX,NCT01797120-0046,1,FULVESTRANT,250,mg,SOLUTION,ONCE,INTRAMUSCULAR,2022-10-08,2022-10-08,1,1,INDUCTION
NCT01797120,EX,NCT01797120-0046,2,FULVESTRANT,250,mg,SOLUTION,ONCE,INTRAMUSCULAR,2022-10-22,2022-10-22,15,15,INDUCTION
NCT01797120,EX,NCT01797120-0046,3,FULVESTRANT,500,mg,SOLUTION,ONCE,INTRAMUSCULAR,2022-11-05,2022-11-05,29,29,INDUCTION
NCT01797120,EX,NCT01797120-0046,4,FULVESTRANT,500,mg,SOLUTION,ONCE,INTRAMUSCULAR,2022-12-03,2022-12-03,57,57,INDUCTION
NCT01797120,EX,NCT01797120-0046,5,FULVESTRANT,500,mg,SOLUTION,ONCE,INTRAMUSCULAR,2022-12-31,2022-12-31,85,85,INDUCTION
NCT01797120,EX,NCT01797120-0046,6,EVEROLIMUS,10,mg,TABLET,QD,ORAL,2022-10-08,2023-01-01,1,86,INDUCTION
NCT01797120,EX,NCT01797120-0047,1,FULVESTRANT,250,mg,SOLUTION,ONCE,INTRAMUSCULAR,2021-08-21,2021-08-21,1,1,INDUCTION
NCT01797120,EX,NCT01797120-0047,2,FULVESTRANT,250,mg,SOLUTION,ONCE,INTRAMUSCULAR,2021-09-04,2021-09-04,15,15,INDUCTION
NCT01797120,EX,NCT01797120-0047,3,FULVESTRANT,500,mg,SOLUTION,ONCE,INTRAMUSCULAR,2021-09-18,2021-09-18,29,29,INDUCTION
NCT01797120,EX,NCT01797120-0047,4,FULVESTRANT,500,mg,SOLUTION,ONCE,INTRAMUSCULAR,2021-10-16,2021-10-16,57,57,INDUCTION
NCT01797120,EX,NCT01797120-0047,5,FULVESTRANT,500,mg,SOLUTION,ONCE,INTRAMUSCULAR,2021-11-13,2021-11-13,85,85,INDUCTION
NCT01797120,EX,NCT01797120-0047,6,FULVESTRANT,500,mg,SOLUTION,ONCE,INTRAMUSCULAR,2021-12-11,2021-12-11,113,113,INDUCTION
NCT01797120,EX,NCT01797120-0047,7,FULVESTRANT,500,mg,SOLUTION,ONCE,INTRAMUSCULAR,2022-01-08,2022-01-08,141,141,INDUCTION
NCT01797120,EX,NCT01797120-0047,8,FULVESTRANT,500,mg,SOLUTION,ONCE,INTRAMUSCULAR,2022-02-05,2022-02-05,169,169,INDUCTION
NCT01797120,EX,NCT01797120-0047,9,FULVESTRANT,500,mg,SOLUTION,ONCE,INTRAMUSCULAR,2022-03-05,2022-03-05,197,197,INDUCTION
NCT01797120,EX,NCT01797120-0047,10,FULVESTRANT,500,mg,SOLUTION,ONCE,INTRAMUSCULAR,2022-04-02,2022-04-02,225,225,INDUCTION
NCT01797120,EX,NCT01797120-0047,11,FULVESTRANT,500,mg,SOLUTION,ONCE,INTRAMUSCULAR,2022-04-30,2022-04-30,253,253,INDUCTION
NCT01797120,EX,NCT01797120-0047,12,FULVESTRANT,500,mg,SOLUTION,ONCE,INTRAMUSCULAR,2022-05-28,2022-05-28,281,281,INDUCTION
NCT01797120,EX,NCT01797120-0047,13,FULVESTRANT,500,mg,SOLUTION,ONCE,INTRAMUSCULAR,2022-06-25,2022-06-25,309,309,INDUCTION
NCT01797120,EX,NCT01797120-0047,14,FULVESTRANT,500,mg,SOLUTION,ONCE,INTRAMUSCULAR,2022-07-23,2022-07-23,337,337,INDUCTION
NCT01797120,EX,NCT01797120-0047,15,FULVESTRANT,500,mg,SOLUTION,ONCE,INTRAMUSCULAR,2022-08-20,2022-08-20,365,365,CONTINUATION
NCT01797120,EX,NCT01797120-0047,16,FULVESTRANT,500,mg,SOLUTION,ONCE,INTRAMUSCULAR,2022-09-17,2022-09-17,393,393,CONTINUATION
NCT01797120,EX,NCT01797120-0047,17,FULVESTRANT,500,mg,SOLUTION,ONCE,INTRAMUSCULAR,2022-10-15,2022-10-15,421,421,CONTINUATION
NCT01797120,EX,NCT01797120-0047,18,FULVESTRANT,500,mg,SOLUTION,ONCE,INTRAMUSCULAR,2022-11-12,2022-11-12,449,449,CONTINUATION
NCT01797120,EX,NCT01797120-0047,19,FULVESTRANT,500,mg,SOLUTION,ONCE,INTRAMUSCULAR,2022-12-10,2022-12-10,477,477,CONTINUATION
NCT01797120,EX,NCT01797120-0047,20,FULVESTRANT,500,mg,SOLUTION,ONCE,INTRAMUSCULAR,2023-01-07,2023-01-07,505,505,CONTINUATION
NCT01797120,EX,NCT01797120-0047,21,FULVESTRANT,500,mg,SOLUTION,ONCE,INTRAMUSCULAR,2023-02-04,2023-02-04,533,533,CONTINUATION
NCT01797120,EX,NCT01797120-0047,22,FULVESTRANT,500,mg,SOLUTION,ONCE,INTRAMUSCULAR,2023-03-04,2023-03-04,561,561,CONTINUATION
NCT01797120,EX,NCT01797120-0047,23,FULVESTRANT,500,mg,SOLUTION,ONCE,INTRAMUSCULAR,2023-04-01,2023-04-01,589,589,CONTINUATION
NCT01797120,EX,NCT01797120-0047,24,EVEROLIMUS,10,mg,TABLET,QD,ORAL,2021-08-21,2023-04-01,1,589,INDUCTION
NCT01797120,EX,NCT01797120-0048,1,FULVESTRANT,250,mg,SOLUTION,ONCE,INTRAMUSCULAR,2021-02-06,2021-02-06,1,1,INDUCTION
NCT01797120,EX,NCT01797120-0048,2,FULVESTRANT,250,mg,SOLUTION,ONCE,INTRAMUSCULAR,2021-02-20,2021-02-20,15,15,INDUCTION
NCT01797120,EX,NCT01797120-0048,3,FULVESTRANT,500,mg,SOLUTION,ONCE,INTRAMUSCULAR,2021-03-06,2021-03-06,29,29,INDUCTION
NCT01797120,EX,NCT01797120-0048,4,FULVESTRANT,500,mg,SOLUTION,ONCE,INTRAMUSCULAR,2021-04-03,2021-04-03,57,57,INDUCTION
NCT01797120,EX,NCT01797120-0048,5,FULVESTRANT,500,mg,SOLUTION,ONCE,INTRAMUSCULAR,2021-05-01,2021-05-01,85,85,INDUCTION
NCT01797120,EX,NCT01797120-0048,6,FULVESTRANT,500,mg,SOLUTION,ONCE,INTRAMUSCULAR,2021-05-29,2021-05-29,113,113,INDUCTION
NCT01797120,EX,NCT01797120-0048,7,FULVESTRANT,500,mg,SOLUTION,ONCE,INTRAMUSCULAR,2021-06-26,2021-06-26,141,141,INDUCTION
NCT01797120,EX,NCT01797120-0048,8,FULVESTRANT,500,mg,SOLUTION,ONCE,INTRAMUSCULAR,2021-07-24,2021-07-24,169,169,INDUCTION
NCT01797120,EX,NCT01797120-0048,11,EVEROLIMUS,10,mg,TABLET,QD,ORAL,2021-02-06,2021-07-25,1,170,INDUCTION
NCT01797120,EX,NCT01797120-0049,1,FULVESTRANT,250,mg,SOLUTION,ONCE,INTRAMUSCULAR,2022-04-05,2022-04-05,1,1,INDUCTION
NCT01797120,EX,NCT01797120-0049,2,FULVESTRANT,250,mg,SOLUTION,ONCE,INTRAMUSCULAR,2022-04-19,2022-04-19,15,15,INDUCTION
NCT01797120,EX,NCT01797120-0049,3,FULVESTRANT,500,mg,SOLUTION,ONCE,INTRAMUSCULAR,2022-05-03,2022-05-03,29,29,INDUCTION
NCT01797120,EX,NCT01797120-0049,4,FULVESTRANT,500,mg,SOLUTION,ONCE,INTRAMUSCULAR,2022-05-31,2022-05-31,57,57,INDUCTION
NCT01797120,EX,NCT01797120-0049,5,FULVESTRANT,500,mg,SOLUTION,ONCE,INTRAMUSCULAR,2022-06-28,2022-06-28,85,85,INDUCTION
NCT01797120,EX,NCT01797120-0049,6,FULVESTRANT,500,mg,SOLUTION,ONCE,INTRAMUSCULAR,2022-07-26,2022-07-26,113,113,INDUCTION
NCT01797120,EX,NCT01797120-0049,7,FULVESTRANT,500,mg,SOLUTION,ONCE,INTRAMUSCULAR,2022-08-23,2022-08-23,141,141,INDUCTION
NCT01797120,EX,NCT01797120-0049,8,FULVESTRANT,500,mg,SOLUTION,ONCE,INTRAMUSCULAR,2022-09-20,2022-09-20,169,169,INDUCTION
NCT01797120,EX,NCT01797120-0049,9,PLACEBO,0,mg,TABLET,QD,ORAL,2022-04-05,2023-11-15,1,590,INDUCTION
NCT01797120,EX,NCT01797120-0050,1,FULVESTRANT,250,mg,SOLUTION,ONCE,INTRAMUSCULAR,2021-10-18,2021-10-18,1,1,INDUCTION
NCT01797120,EX,NCT01797120-0050,2,FULVESTRANT,250,mg,SOLUTION,ONCE,INTRAMUSCULAR,2021-11-01,2021-11-01,15,15,INDUCTION
NCT01797120,EX,NCT01797120-0050,3,FULVESTRANT,500,mg,SOLUTION,ONCE,INTRAMUSCULAR,2021-11-15,2021-11-15,29,29,INDUCTION
NCT01797120,EX,NCT01797120-0050,4,FULVESTRANT,500,mg,SOLUTION,ONCE,INTRAMUSCULAR,2021-12-13,2021-12-13,57,57,INDUCTION
NCT01797120,EX,NCT01797120-0050,5,FULVESTRANT,500,mg,SOLUTION,ONCE,INTRAMUSCULAR,2022-01-10,2022-01-10,85,85,INDUCTION
NCT01797120,EX,NCT01797120-0050,6,FULVESTRANT,500,mg,SOLUTION,ONCE,INTRAMUSCULAR,2022-02-07,2022-02-07,113,113,INDUCTION
NCT01797120,EX,NCT01797120-0050,7,FULVESTRANT,500,mg,SOLUTION,ONCE,INTRAMUSCULAR,2022-03-07,2022-03-07,141,141,INDUCTION
NCT01797120,EX,NCT01797120-0050,8,FULVESTRANT,500,mg,SOLUTION,ONCE,INTRAMUSCULAR,2022-04-04,2022-04-04,169,169,INDUCTION
NCT01797120,EX,NCT01797120-0050,9,FULVESTRANT,500,mg,SOLUTION,ONCE,INTRAMUSCULAR,2022-05-02,2022-05-02,197,197,INDUCTION
NCT01797120,EX,NCT01797120-0050,10,FULVESTRANT,500,mg,SOLUTION,ONCE,INTRAMUSCULAR,2022-05-30,2022-05-30,225,225,INDUCTION
NCT01797120,EX,NCT01797120-0050,11,PLACEBO,0,mg,TABLET,QD,ORAL,2021-10-18,2022-06-28,1,254,INDUCTION
NCT01797120,EX,NCT01797120-0051,1,FULVESTRANT,250,mg,SOLUTION,ONCE,INTRAMUSCULAR,2021-07-17,2021-07-17,1,1,INDUCTION
NCT01797120,EX,NCT01797120-0051,2,FULVESTRANT,250,mg,SOLUTION,ONCE,INTRAMUSCULAR,2021-07-31,2021-07-31,15,15,INDUCTION
NCT01797120,EX,NCT01797120-0051,3,FULVESTRANT,500,mg,SOLUTION,ONCE,INTRAMUSCULAR,2021-08-14,2021-08-14,29,29,INDUCTION
NCT01797120,EX,NCT01797120-0051,4,FULVESTRANT,500,mg,SOLUTION,ONCE,INTRAMUSCULAR,2021-09-11,2021-09-11,57,57,INDUCTION
NCT01797120,EX,NCT01797120-0051,5,FULVESTRANT,500,mg,SOLUTION,ONCE,INTRAMUSCULAR,2021-10-09,2021-10-09,85,85,INDUCTION
NCT01797120,EX,NCT01797120-0051,6,FULVESTRANT,500,mg,SOLUTION,ONCE,INTRAMUSCULAR,2021-11-06,2021-11-06,113,113,INDUCTION
NCT01797120,EX,NCT01797120-0051,7,FULVESTRANT,500,mg,SOLUTION,ONCE,INTRAMUSCULAR,2021-12-04,2021-12-04,141,141,INDUCTION
NCT01797120,EX,NCT01797120-0051,8,FULVESTRANT,500,mg,SOLUTION,ONCE,INTRAMUSCULAR,2022-01-01,2022-01-01,169,169,INDUCTION
NCT01797120,EX,NCT01797120-0051,9,FULVESTRANT,500,mg,SOLUTION,ONCE,INTRAMUSCULAR,2022-01-29,2022-01-29,197,197,INDUCTION
NCT01797120,EX,NCT01797120-0051,10,FULVESTRANT,500,mg,SOLUTION,ONCE,INTRAMUSCULAR,2022-02-26,2022-02-26,225,225,INDUCTION
NCT01797120,EX,NCT01797120-0051,11,FULVESTRANT,500,mg,SOLUTION,ONCE,INTRAMUSCULAR,2022-03-26,2022-03-26,253,253,INDUCTION
NCT01797120,EX,NCT01797120-0051,12,FULVESTRANT,500,mg,SOLUTION,ONCE,INTRAMUSCULAR,2022-04-23,2022-04-23,281,281,INDUCTION
NCT01797120,EX,NCT01797120-0051,13,FULVESTRANT,500,mg,SOLUTION,ONCE,INTRAMUSCULAR,2022-05-21,2022-05-21,309,309,INDUCTION
NCT01797120,EX,NCT01797120-0051,14,FULVESTRANT,500,mg,SOLUTION,ONCE,INTRAMUSCULAR,2022-06-18,2022-06-18,337,337,INDUCTION
NCT01797120,EX,NCT01797120-0051,15,FULVESTRANT,500,mg,SOLUTION,ONCE,INTRAMUSCULAR,2022-07-16,2022-07-16,365,365,CONTINUATION
NCT01797120,EX,NCT01797120-0051,16,FULVESTRANT,500,mg,SOLUTION,ONCE,INTRAMUSCULAR,2022-08-13,2022-08-13,393,393,CONTINUATION
NCT01797120,EX,NCT01797120-0051,17,FULVESTRANT,500,mg,SOLUTION,ONCE,INTRAMUSCULAR,2022-09-10,2022-09-10,421,421,CONTINUATION
NCT01797120,EX,NCT01797120-0051,18,FULVESTRANT,500,mg,SOLUTION,ONCE,INTRAMUSCULAR,2022-10-08,2022-10-08,449,449,CONTINUATION
NCT01797120,EX,NCT01797120-0051,19,FULVESTRANT,500,mg,SOLUTION,ONCE,INTRAMUSCULAR,2022-11-05,2022-11-05,477,477,CONTINUATION
NCT01797120,EX,NCT01797120-0051,20,FULVESTRANT,500,mg,SOLUTION,ONCE,INTRAMUSCULAR,2022-12-03,2022-12-03,505,505,CONTINUATION
NCT01797120,EX,NCT01797120-0051,21,FULVESTRANT,500,mg,SOLUTION,ONCE,INTRAMUSCULAR,2022-12-31,2022-12-31,533,533,CONTINUATION
NCT01797120,EX,NCT01797120-0051,22,FULVESTRANT,500,mg,SOLUTION,ONCE,INTRAMUSCULAR,2023-01-28,2023-01-28,561,561,CONTINUATION
NCT01797120,EX,NCT01797120-0051,23,FULVESTRANT,500,mg,SOLUTION,ONCE,INTRAMUSCULAR,2023-02-25,2023-02-25,589,589,CONTINUATION
NCT01797120,EX,NCT01797120-0051,24,EVEROLIMUS,10,mg,TABLET,QD,ORAL,2021-07-17,2023-02-28,1,592,INDUCTION
NCT01797120,EX,NCT01797120-0052,1,FULVESTRANT,250,mg,SOLUTION,ONCE,INTRAMUSCULAR,2021-09-12,2021-09-12,1,1,INDUCTION
NCT01797120,EX,NCT01797120-0052,2,FULVESTRANT,250,mg,SOLUTION,ONCE,INTRAMUSCULAR,2021-09-26,2021-09-26,15,15,INDUCTION
NCT01797120,EX,NCT01797120-0052,3,FULVESTRANT,500,mg,SOLUTION,ONCE,INTRAMUSCULAR,2021-10-10,2021-10-10,29,29,INDUCTION
NCT01797120,EX,NCT01797120-0052,4,FULVESTRANT,500,mg,SOLUTION,ONCE,INTRAMUSCULAR,2021-11-07,2021-11-07,57,57,INDUCTION
NCT01797120,EX,NCT01797120-0052,5,FULVESTRANT,500,mg,SOLUTION,ONCE,INTRAMUSCULAR,2021-12-05,2021-12-05,85,85,INDUCTION
NCT01797120,EX,NCT01797120-0052,18,PLACEBO,0,mg,TABLET,QD,ORAL,2021-09-12,2021-12-06,1,86,INDUCTION
NCT01797120,EX,NCT01797120-0053,1,FULVESTRANT,250,mg,SOLUTION,ONCE,INTRAMUSCULAR,2021-03-22,2021-03-22,1,1,INDUCTION
NCT01797120,EX,NCT01797120-0053,2,FULVESTRANT,250,mg,SOLUTION,ONCE,INTRAMUSCULAR,2021-04-05,2021-04-05,15,15,INDUCTION
NCT01797120,EX,NCT01797120-0053,3,FULVESTRANT,500,mg,SOLUTION,ONCE,INTRAMUSCULAR,2021-04-19,2021-04-19,29,29,INDUCTION
NCT01797120,EX,NCT01797120-0053,4,FULVESTRANT,500,mg,SOLUTION,ONCE,INTRAMUSCULAR,2021-05-17,2021-05-17,57,57,INDUCTION
NCT01797120,EX,NCT01797120-0053,5,FULVESTRANT,500,mg,SOLUTION,ONCE,INTRAMUSCULAR,2021-06-14,2021-06-14,85,85,INDUCTION
NCT01797120,EX,NCT01797120-0053,9,PLACEBO,0,mg,TABLET,QD,ORAL,2021-03-22,2021-06-15,1,86,INDUCTION
NCT01797120,EX,NCT01797120-0054,1,FULVESTRANT,250,mg,SOLUTION,ONCE,INTRAMUSCULAR,2022-03-23,2022-03-23,1,1,INDUCTION
NCT01797120,EX,NCT01797120-0054,2,FULVESTRANT,250,mg,SOLUTION,ONCE,INTRAMUSCULAR,2022-04-06,2022-04-06,15,15,INDUCTION
NCT01797120,EX,NCT01797120-0054,3,FULVESTRANT,500,mg,SOLUTION,ONCE,INTRAMUSCULAR,2022-04-20,2022-04-20,29,29,INDUCTION
NCT01797120,EX,NCT01797120-0054,4,FULVESTRANT,500,mg,SOLUTION,ONCE,INTRAMUSCULAR,2022-05-18,2022-05-18,57,57,INDUCTION
NCT01797120,EX,NCT01797120-0054,5,FULVESTRANT,500,mg,SOLUTION,ONCE,INTRAMUSCULAR,2022-06-15,2022-06-15,85,85,INDUCTION
NCT01797120,EX,NCT01797120-0054,6,FULVESTRANT,500,mg,SOLUTION,ONCE,INTRAMUSCULAR,2022-07-13,2022-07-13,113,113,INDUCTION
NCT01797120,EX,NCT01797120-0054,7,FULVESTRANT,500,mg,SOLUTION,ONCE,INTRAMUSCULAR,2022-08-10,2022-08-10,141,141,INDUCTION
NCT01797120,EX,NCT01797120-0054,8,FULVESTRANT,500,mg,SOLUTION,ONCE,INTRAMUSCULAR,2022-09-07,2022-09-07,169,169,INDUCTION
NCT01797120,EX,NCT01797120-0054,9,EVEROLIMUS,10,mg,TABLET,QD,ORAL,2022-03-23,2025-03-20,1,1094,INDUCTION
NCT01797120,EX,NCT01797120-0055,1,FULVESTRANT,250,mg,SOLUTION,ONCE,INTRAMUSCULAR,2021-05-17,2021-05-17,1,1,INDUCTION
NCT01797120,EX,NCT01797120-0055,2,FULVESTRANT,250,mg,SOLUTION,ONCE,INTRAMUSCULAR,2021-05-31,2021-05-31,15,15,INDUCTION
NCT01797120,EX,NCT01797120-0055,3,FULVESTRANT,500,mg,SOLUTION,ONCE,INTRAMUSCULAR,2021-06-14,2021-06-14,29,29,INDUCTION
NCT01797120,EX,NCT01797120-0055,4,FULVESTRANT,500,mg,SOLUTION,ONCE,INTRAMUSCULAR,2021-07-12,2021-07-12,57,57,INDUCTION
NCT01797120,EX,NCT01797120-0055,5,FULVESTRANT,500,mg,SOLUTION,ONCE,INTRAMUSCULAR,2021-08-09,2021-08-09,85,85,INDUCTION
NCT01797120,EX,NCT01797120-0055,6,PLACEBO,0,mg,TABLET,QD,ORAL,2021-05-17,2021-08-10,1,86,INDUCTION
NCT01797120,EX,NCT01797120-0056,1,FULVESTRANT,250,mg,SOLUTION,ONCE,INTRAMUSCULAR,2021-07-09,2021-07-09,1,1,INDUCTION
NCT01797120,EX,NCT01797120-0056,2,FULVESTRANT,250,mg,SOLUTION,ONCE,INTRAMUSCULAR,2021-07-23,2021-07-23,15,15,INDUCTION
NCT01797120,EX,NCT01797120-0056,3,FULVESTRANT,500,mg,SOLUTION,ONCE,INTRAMUSCULAR,2021-08-06,2021-08-06,29,29,INDUCTION
NCT01797120,EX,NCT01797120-0056,4,FULVESTRANT,500,mg,SOLUTION,ONCE,INTRAMUSCULAR,2021-09-03,2021-09-03,57,57,INDUCTION
NCT01797120,EX,NCT01797120-0056,5,FULVESTRANT,500,mg,SOLUTION,ONCE,INTRAMUSCULAR,2021-10-01,2021-10-01,85,85,INDUCTION
NCT01797120,EX,NCT01797120-0056,12,EVEROLIMUS,10,mg,TABLET,QD,ORAL,2021-07-09,2021-10-02,1,86,INDUCTION
NCT01797120,EX,NCT01797120-0057,1,FULVESTRANT,250,mg,SOLUTION,ONCE,INTRAMUSCULAR,2021-05-10,2021-05-10,1,1,INDUCTION
NCT01797120,EX,NCT01797120-0057,2,FULVESTRANT,250,mg,SOLUTION,ONCE,INTRAMUSCULAR,2021-05-24,2021-05-24,15,15,INDUCTION
NCT01797120,EX,NCT01797120-0057,3,FULVESTRANT,500,mg,SOLUTION,ONCE,INTRAMUSCULAR,2021-06-07,2021-06-07,29,29,INDUCTION
NCT01797120,EX,NCT01797120-0057,4,FULVESTRANT,500,mg,SOLUTION,ONCE,INTRAMUSCULAR,2021-07-05,2021-07-05,57,57,INDUCTION
NCT01797120,EX,NCT01797120-0057,5,FULVESTRANT,500,mg,SOLUTION,ONCE,INTRAMUSCULAR,2021-08-02,2021-08-02,85,85,INDUCTION
NCT01797120,EX,NCT01797120-0057,6,FULVESTRANT,500,mg,SOLUTION,ONCE,INTRAMUSCULAR,2021-08-30,2021-08-30,113,113,INDUCTION
NCT01797120,EX,NCT01797120-0057,7,FULVESTRANT,500,mg,SOLUTION,ONCE,INTRAMUSCULAR,2021-09-27,2021-09-27,141,141,INDUCTION
NCT01797120,EX,NCT01797120-0057,8,FULVESTRANT,500,mg,SOLUTION,ONCE,INTRAMUSCULAR,2021-10-25,2021-10-25,169,169,INDUCTION
NCT01797120,EX,NCT01797120-0057,9,FULVESTRANT,500,mg,SOLUTION,ONCE,INTRAMUSCULAR,2021-11-22,2021-11-22,197,197,INDUCTION
NCT01797120,EX,NCT01797120-0057,10,FULVESTRANT,500,mg,SOLUTION,ONCE,INTRAMUSCULAR,2021-12-20,2021-12-20,225,225,INDUCTION
NCT01797120,EX,NCT01797120-0057,11,FULVESTRANT,500,mg,SOLUTION,ONCE,INTRAMUSCULAR,2022-01-17,2022-01-17,253,253,INDUCTION
NCT01797120,EX,NCT01797120-0057,12,FULVESTRANT,500,mg,SOLUTION,ONCE,INTRAMUSCULAR,2022-02-14,2022-02-14,281,281,INDUCTION
NCT01797120,EX,NCT01797120-0057,13,FULVESTRANT,500,mg,SOLUTION,ONCE,INTRAMUSCULAR,2022-03-14,2022-03-14,309,309,INDUCTION
NCT01797120,EX,NCT01797120-0057,14,FULVESTRANT,500,mg,SOLUTION,ONCE,INTRAMUSCULAR,2022-04-11,2022-04-11,337,337,INDUCTION
NCT01797120,EX,NCT01797120-0057,15,FULVESTRANT,500,mg,SOLUTION,ONCE,INTRAMUSCULAR,2022-05-09,2022-05-09,365,365,CONTINUATION
NCT01797120,EX,NCT01797120-0057,16,FULVESTRANT,500,mg,SOLUTION,ONCE,INTRAMUSCULAR,2022-06-06,2022-06-06,393,393,CONTINUATION
NCT01797120,EX,NCT01797120-0057,17,FULVESTRANT,500,mg,SOLUTION,ONCE,INTRAMUSCULAR,2022-07-04,2022-07-04,421,421,CONTINUATION
NCT01797120,EX,NCT01797120-0057,18,FULVESTRANT,500,mg,SOLUTION,ONCE,INTRAMUSCULAR,2022-08-01,2022-08-01,449,449,CONTINUATION
NCT01797120,EX,NCT01797120-0057,19,FULVESTRANT,500,mg,SOLUTION,ONCE,INTRAMUSCULAR,2022-08-29,2022-08-29,477,477,CONTINUATION
NCT01797120,EX,NCT01797120-0057,20,FULVESTRANT,500,mg,SOLUTION,ONCE,INTRAMUSCULAR,2022-09-26,2022-09-26,505,505,CONTINUATION
NCT01797120,EX,NCT01797120-0057,21,EVEROLIMUS,10,mg,TABLET,QD,ORAL,2021-05-10,2023-11-21,1,926,INDUCTION
NCT01797120,EX,NCT01797120-0058,1,FULVESTRANT,250,mg,SOLUTION,ONCE,INTRAMUSCULAR,2021-07-29,2021-07-29,1,1,INDUCTION
NCT01797120,EX,NCT01797120-0058,2,FULVESTRANT,250,mg,SOLUTION,ONCE,INTRAMUSCULAR,2021-08-12,2021-08-12,15,15,INDUCTION
NCT01797120,EX,NCT01797120-0058,3,FULVESTRANT,500,mg,SOLUTION,ONCE,INTRAMUSCULAR,2021-08-26,2021-08-26,29,29,INDUCTION
NCT01797120,EX,NCT01797120-0058,4,FULVESTRANT,500,mg,SOLUTION,ONCE,INTRAMUSCULAR,2021-09-23,2021-09-23,57,57,INDUCTION
NCT01797120,EX,NCT01797120-0058,5,FULVESTRANT,500,mg,SOLUTION,ONCE,INTRAMUSCULAR,2021-10-21,2021-10-21,85,85,INDUCTION
NCT01797120,EX,NCT01797120-0058,6,FULVESTRANT,500,mg,SOLUTION,ONCE,INTRAMUSCULAR,2021-11-18,2021-11-18,113,113,INDUCTION
NCT01797120,EX,NCT01797120-0058,7,FULVESTRANT,500,mg,SOLUTION,ONCE,INTRAMUSCULAR,2021-12-16,2021-12-16,141,141,INDUCTION
NCT01797120,EX,NCT01797120-0058,8,FULVESTRANT,500,mg,SOLUTION,ONCE,INTRAMUSCULAR,2022-01-13,2022-01-13,169,169,INDUCTION
NCT01797120,EX,NCT01797120-0058,9,FULVESTRANT,500,mg,SOLUTION,ONCE,INTRAMUSCULAR,2022-02-10,2022-02-10,197,197,INDUCTION
NCT01797120,EX,NCT01797120-0058,10,PLACEBO,0,mg,TABLET,QD,ORAL,2021-07-29,2022-09-23,1,422,INDUCTION
NCT01797120,EX,NCT01797120-0059,1,FULVESTRANT,250,mg,SOLUTION,ONCE,INTRAMUSCULAR,2022-01-04,2022-01-04,1,1,INDUCTION
NCT01797120,EX,NCT01797120-0059,2,FULVESTRANT,250,mg,SOLUTION,ONCE,INTRAMUSCULAR,2022-01-18,2022-01-18,15,15,INDUCTION
NCT01797120,EX,NCT01797120-0059,3,FULVESTRANT,500,mg,SOLUTION,ONCE,INTRAMUSCULAR,2022-02-01,2022-02-01,29,29,INDUCTION
NCT01797120,EX,NCT01797120-0059,4,FULVESTRANT,500,mg,SOLUTION,ONCE,INTRAMUSCULAR,2022-03-01,2022-03-01,57,57,INDUCTION
NCT01797120,EX,NCT01797120-0059,5,FULVESTRANT,500,mg,SOLUTION,ONCE,INTRAMUSCULAR,2022-03-29,2022-03-29,85,85,INDUCTION
NCT01797120,EX,NCT01797120-0059,6,FULVESTRANT,500,mg,SOLUTION,ONCE,INTRAMUSCULAR,2022-04-26,2022-04-26,113,113,INDUCTION
NCT01797120,EX,NCT01797120-0059,7,FULVESTRANT,500,mg,SOLUTION,ONCE,INTRAMUSCULAR,2022-05-24,2022-05-24,141,141,INDUCTION
NCT01797120,EX,NCT01797120-0059,8,FULVESTRANT,500,mg,SOLUTION,ONCE,INTRAMUSCULAR,2022-06-21,2022-06-21,169,169,INDUCTION
NCT01797120,EX,NCT01797120-0059,9,FULVESTRANT,500,mg,SOLUTION,ONCE,INTRAMUSCULAR,2022-07-19,2022-07-19,197,197,INDUCTION
NCT01797120,EX,NCT01797120-0059,10,FULVESTRANT,500,mg,SOLUTION,ONCE,INTRAMUSCULAR,2022-08-16,2022-08-16,225,225,INDUCTION
NCT01797120,EX,NCT01797120-0059,11,FULVESTRANT,500,mg,SOLUTION,ONCE,INTRAMUSCULAR,2022-09-13,2022-09-13,253,253,INDUCTION
NCT01797120,EX,NCT01797120-0059,12,EVEROLIMUS,10,mg,TABLET,QD,ORAL,2022-01-04,2024-04-24,1,842,INDUCTION
NCT01797120,EX,NCT01797120-0060,1,FULVESTRANT,250,mg,SOLUTION,ONCE,INTRAMUSCULAR,2021-10-19,2021-10-19,1,1,INDUCTION
NCT01797120,EX,NCT01797120-0060,2,FULVESTRANT,250,mg,SOLUTION,ONCE,INTRAMUSCULAR,2021-11-02,2021-11-02,15,15,INDUCTION
NCT01797120,EX,NCT01797120-0060,3,FULVESTRANT,500,mg,SOLUTION,ONCE,INTRAMUSCULAR,2021-11-16,2021-11-16,29,29,INDUCTION
NCT01797120,EX,NCT01797120-0060,4,FULVESTRANT,500,mg,SOLUTION,ONCE,INTRAMUSCULAR,2021-12-14,2021-12-14,57,57,INDUCTION
NCT01797120,EX,NCT01797120-0060,5,FULVESTRANT,500,mg,SOLUTION,ONCE,INTRAMUSCULAR,2022-01-11,2022-01-11,85,85,INDUCTION
NCT01797120,EX,NCT01797120-0060,6,FULVESTRANT,500,mg,SOLUTION,ONCE,INTRAMUSCULAR,2022-02-08,2022-02-08,113,113,INDUCTION
NCT01797120,EX,NCT01797120-0060,7,FULVESTRANT,500,mg,SOLUTION,ONCE,INTRAMUSCULAR,2022-03-08,2022-03-08,141,141,INDUCTION
NCT01797120,EX,NCT01797120-0060,8,FULVESTRANT,500,mg,SOLUTION,ONCE,INTRAMUSCULAR,2022-04-05,2022-04-05,169,169,INDUCTION
NCT01797120,EX,NCT01797120-0060,19,EVEROLIMUS,10,mg,TABLET,QD,ORAL,2021-10-19,2022-04-06,1,170,INDUCTION
NCT01797120,EX,NCT01797120-0061,1,FULVESTRANT,250,mg,SOLUTION,ONCE,INTRAMUSCULAR,2022-01-12,2022-01-12,1,1,INDUCTION
NCT01797120,EX,NCT01797120-0061,2,FULVESTRANT,250,mg,SOLUTION,ONCE,INTRAMUSCULAR,2022-01-26,2022-01-26,15,15,INDUCTION
NCT01797120,EX,NCT01797120-0061,3,FULVESTRANT,500,mg,SOLUTION,ONCE,INTRAMUSCULAR,2022-02-09,2022-02-09,29,29,INDUCTION
NCT01797120,EX,NCT01797120-0061,4,FULVESTRANT,500,mg,SOLUTION,ONCE,INTRAMUSCULAR,2022-03-09,2022-03-09,57,57,INDUCTION
NCT01797120,EX,NCT01797120-0061,5,FULVESTRANT,500,mg,SOLUTION,ONCE,INTRAMUSCULAR,2022-04-06,2022-04-06,85,85,INDUCTION
NCT01797120,EX,NCT01797120-0061,6,FULVESTRANT,500,mg,SOLUTION,ONCE,INTRAMUSCULAR,2022-05-04,2022-05-04,113,113,INDUCTION
NCT01797120,EX,NCT01797120-0061,7,FULVESTRANT,500,mg,SOLUTION,ONCE,INTRAMUSCULAR,2022-06-01,2022-06-01,141,141,INDUCTION
NCT01797120,EX,NCT01797120-0061,8,FULVESTRANT,500,mg,SOLUTION,ONCE,INTRAMUSCULAR,2022-06-29,2022-06-29,169,169,INDUCTION
NCT01797120,EX,NCT01797120-0061,18,PLACEBO,0,mg,TABLET,QD,ORAL,2022-01-12,2022-06-30,1,170,INDUCTION
NCT01797120,EX,NCT01797120-0062,1,FULVESTRANT,250,mg,SOLUTION,ONCE,INTRAMUSCULAR,2021-12-14,2021-12-14,1,1,INDUCTION
NCT01797120,EX,NCT01797120-0062,2,FULVESTRANT,250,mg,SOLUTION,ONCE,INTRAMUSCULAR,2021-12-28,2021-12-28,15,15,INDUCTION
NCT01797120,EX,NCT01797120-0062,3,FULVESTRANT,500,mg,SOLUTION,ONCE,INTRAMUSCULAR,2022-01-11,2022-01-11,29,29,INDUCTION
NCT01797120,EX,NCT01797120-0062,4,FULVESTRANT,500,mg,SOLUTION,ONCE,INTRAMUSCULAR,2022-02-08,2022-02-08,57,57,INDUCTION
NCT01797120,EX,NCT01797120-0062,5,FULVESTRANT,500,mg,SOLUTION,ONCE,INTRAMUSCULAR,2022-03-08,2022-03-08,85,85,INDUCTION
NCT01797120,EX,NCT01797120-0062,13,EVEROLIMUS,10,mg,TABLET,QD,ORAL,2021-12-14,2022-03-09,1,86,INDUCTION
NCT01797120,EX,NCT01797120-0063,1,FULVESTRANT,250,mg,SOLUTION,ONCE,INTRAMUSCULAR,2021-06-18,2021-06-18,1,1,INDUCTION
NCT01797120,EX,NCT01797120-0063,2,FULVESTRANT,250,mg,SOLUTION,ONCE,INTRAMUSCULAR,2021-07-02,2021-07-02,15,15,INDUCTION
NCT01797120,EX,NCT01797120-0063,3,FULVESTRANT,500,mg,SOLUTION,ONCE,INTRAMUSCULAR,2021-07-16,2021-07-16,29,29,INDUCTION
NCT01797120,EX,NCT01797120-0063,4,FULVESTRANT,500,mg,SOLUTION,ONCE,INTRAMUSCULAR,2021-08-13,2021-08-13,57,57,INDUCTION
NCT01797120,EX,NCT01797120-0063,5,FULVESTRANT,500,mg,SOLUTION,ONCE,INTRAMUSCULAR,2021-09-10,2021-09-10,85,85,INDUCTION
NCT01797120,EX,NCT01797120-0063,8,PLACEBO,0,mg,TABLET,QD,ORAL,2021-06-18,2021-09-11,1,86,INDUCTION
NCT01797120,EX,NCT01797120-0064,1,FULVESTRANT,250,mg,SOLUTION,ONCE,INTRAMUSCULAR,2021-06-26,2021-06-26,1,1,INDUCTION
NCT01797120,EX,NCT01797120-0064,2,FULVESTRANT,250,mg,SOLUTION,ONCE,INTRAMUSCULAR,2021-07-10,2021-07-10,15,15,INDUCTION
NCT01797120,EX,NCT01797120-0064,3,FULVESTRANT,500,mg,SOLUTION,ONCE,INTRAMUSCULAR,2021-07-24,2021-07-24,29,29,INDUCTION
NCT01797120,EX,NCT01797120-0064,4,FULVESTRANT,500,mg,SOLUTION,ONCE,INTRAMUSCULAR,2021-08-21,2021-08-21,57,57,INDUCTION
NCT01797120,EX,NCT01797120-0064,5,FULVESTRANT,500,mg,SOLUTION,ONCE,INTRAMUSCULAR,2021-09-18,2021-09-18,85,85,INDUCTION
NCT01797120,EX,NCT01797120-0064,22,EVEROLIMUS,10,mg,TABLET,QD,ORAL,2021-06-26,2021-09-19,1,86,INDUCTION
NCT01797120,EX,NCT01797120-0065,1,FULVESTRANT,250,mg,SOLUTION,ONCE,INTRAMUSCULAR,2022-06-22,2022-06-22,1,1,INDUCTION
NCT01797120,EX,NCT01797120-0065,2,FULVESTRANT,250,mg,SOLUTION,ONCE,INTRAMUSCULAR,2022-07-06,2022-07-06,15,15,INDUCTION
NCT01797120,EX,NCT01797120-0065,3,FULVESTRANT,500,mg,SOLUTION,ONCE,INTRAMUSCULAR,2022-07-20,2022-07-20,29,29,INDUCTION
NCT01797120,EX,NCT01797120-0065,4,FULVESTRANT,500,mg,SOLUTION,ONCE,INTRAMUSCULAR,2022-08-17,2022-08-17,57,57,INDUCTION
NCT01797120,EX,NCT01797120-0065,5,FULVESTRANT,500,mg,SOLUTION,ONCE,INTRAMUSCULAR,2022-09-14,2022-09-14,85,85,INDUCTION
NCT01797120,EX,NCT01797120-0065,6,FULVESTRANT,500,mg,SOLUTION,ONCE,INTRAMUSCULAR,2022-10-12,2022-10-12,113,113,INDUCTION
NCT01797120,EX,NCT01797120-0065,7,FULVESTRANT,500,mg,SOLUTION,ONCE,INTRAMUSCULAR,2022-11-09,2022-11-09,141,141,INDUCTION
NCT01797120,EX,NCT01797120-0065,8,FULVESTRANT,500,mg,SOLUTION,ONCE,INTRAMUSCULAR,2022-12-07,2022-12-07,169,169,INDUCTION
NCT01797120,EX,NCT01797120-0065,9,FULVESTRANT,500,mg,SOLUTION,ONCE,INTRAMUSCULAR,2023-01-04,2023-01-04,197,197,INDUCTION
NCT01797120,EX,NCT01797120-0065,10,FULVESTRANT,500,mg,SOLUTION,ONCE,INTRAMUSCULAR,2023-02-01,2023-02-01,225,225,INDUCTION
NCT01797120,EX,NCT01797120-0065,11,FULVESTRANT,500,mg,SOLUTION,ONCE,INTRAMUSCULAR,2023-03-01,2023-03-01,253,253,INDUCTION
NCT01797120,EX,NCT01797120-0065,12,FULVESTRANT,500,mg,SOLUTION,ONCE,INTRAMUSCULAR,2023-03-29,2023-03-29,281,281,INDUCTION
NCT01797120,EX,NCT01797120-0065,13,FULVESTRANT,500,mg,SOLUTION,ONCE,INTRAMUSCULAR,2023-04-26,2023-04-26,309,309,INDUCTION
NCT01797120,EX,NCT01797120-0065,14,FULVESTRANT,500,mg,SOLUTION,ONCE,INTRAMUSCULAR,2023-05-24,2023-05-24,337,337,INDUCTION
NCT01797120,EX,NCT01797120-0065,15,FULVESTRANT,500,mg,SOLUTION,ONCE,INTRAMUSCULAR,2023-06-21,2023-06-21,365,365,CONTINUATION
NCT01797120,EX,NCT01797120-0065,16,PLACEBO,0,mg,TABLET,QD,ORAL,2022-06-22,2023-06-27,1,371,INDUCTION
NCT01797120,EX,NCT01797120-0066,1,FULVESTRANT,250,mg,SOLUTION,ONCE,INTRAMUSCULAR,2021-11-20,2021-11-20,1,1,INDUCTION
NCT01797120,EX,NCT01797120-0066,2,FULVESTRANT,250,mg,SOLUTION,ONCE,INTRAMUSCULAR,2021-12-04,2021-12-04,15,15,INDUCTION
NCT01797120,EX,NCT01797120-0066,3,FULVESTRANT,500,mg,SOLUTION,ONCE,INTRAMUSCULAR,2021-12-18,2021-12-18,29,29,INDUCTION
NCT01797120,EX,NCT01797120-0066,4,FULVESTRANT,500,mg,SOLUTION,ONCE,INTRAMUSCULAR,2022-01-15,2022-01-15,57,57,INDUCTION
NCT01797120,EX,NCT01797120-0066,5,FULVESTRANT,500,mg,SOLUTION,ONCE,INTRAMUSCULAR,2022-02-12,2022-02-12,85,85,INDUCTION
NCT01797120,EX,NCT01797120-0066,6,FULVESTRANT,500,mg,SOLUTION,ONCE,INTRAMUSCULAR,2022-03-12,2022-03-12,113,113,INDUCTION
NCT01797120,EX,NCT01797120-0066,7,FULVESTRANT,500,mg,SOLUTION,ONCE,INTRAMUSCULAR,2022-04-09,2022-04-09,141,141,INDUCTION
NCT01797120,EX,NCT01797120-0066,8,FULVESTRANT,500,mg,SOLUTION,ONCE,INTRAMUSCULAR,2022-05-07,2022-05-07,169,169,INDUCTION
NCT01797120,EX,NCT01797120-0066,10,EVEROLIMUS,10,mg,TABLET,QD,ORAL,2021-11-20,2022-05-08,1,170,INDUCTION
NCT01797120,EX,NCT01797120-0067,1,FULVESTRANT,250,mg,SOLUTION,ONCE,INTRAMUSCULAR,2022-05-24,2022-05-24,1,1,INDUCTION
NCT01797120,EX,NCT01797120-0067,2,FULVESTRANT,250,mg,SOLUTION,ONCE,INTRAMUSCULAR,2022-06-07,2022-06-07,15,15,INDUCTION
NCT01797120,EX,NCT01797120-0067,3,FULVESTRANT,500,mg,SOLUTION,ONCE,INTRAMUSCULAR,2022-06-21,2022-06-21,29,29,INDUCTION
NCT01797120,EX,NCT01797120-0067,4,FULVESTRANT,500,mg,SOLUTION,ONCE,INTRAMUSCULAR,2022-07-19,2022-07-19,57,57,INDUCTION
NCT01797120,EX,NCT01797120-0067,5,FULVESTRANT,500,mg,SOLUTION,ONCE,INTRAMUSCULAR,2022-08-16,2022-08-16,85,85,INDUCTION
NCT01797120,EX,NCT01797120-0067,6,FULVESTRANT,500,mg,SOLUTION,ONCE,INTRAMUSCULAR,2022-09-13,2022-09-13,113,113,INDUCTION
NCT01797120,EX,NCT01797120-0067,7,FULVESTRANT,500,mg,SOLUTION,ONCE,INTRAMUSCULAR,2022-10-11,2022-10-11,141,141,INDUCTION
NCT01797120,EX,NCT01797120-0067,8,FULVESTRANT,500,mg,SOLUTION,ONCE,INTRAMUSCULAR,2022-11-08,2022-11-08,169,169,INDUCTION
NCT01797120,EX,NCT01797120-0067,9,EVEROLIMUS,10,mg,TABLET,QD,ORAL,2022-05-24,2024-06-19,1,758,INDUCTION
NCT01797120,EX,NCT01797120-0068,1,FULVESTRANT,250,mg,SOLUTION,ONCE,INTRAMUSCULAR,2021-04-25,2021-04-25,1,1,INDUCTION
NCT01797120,EX,NCT01797120-0068,2,FULVESTRANT,250,mg,SOLUTION,ONCE,INTRAMUSCULAR,2021-05-09,2021-05-09,15,15,INDUCTION
NCT01797120,EX,NCT01797120-0068,3,FULVESTRANT,500,mg,SOLUTION,ONCE,INTRAMUSCULAR,2021-05-23,2021-05-23,29,29,INDUCTION
NCT01797120,EX,NCT01797120-0068,4,FULVESTRANT,500,mg,SOLUTION,ONCE,INTRAMUSCULAR,2021-06-20,2021-06-20,57,57,INDUCTION
NCT01797120,EX,NCT01797120-0068,5,FULVESTRANT,500,mg,SOLUTION,ONCE,INTRAMUSCULAR,2021-07-18,2021-07-18,85,85,INDUCTION
NCT01797120,EX,NCT01797120-0068,6,FULVESTRANT,500,mg,SOLUTION,ONCE,INTRAMUSCULAR,2021-08-15,2021-08-15,113,113,INDUCTION
NCT01797120,EX,NCT01797120-0068,7,FULVESTRANT,500,mg,SOLUTION,ONCE,INTRAMUSCULAR,2021-09-12,2021-09-12,141,141,INDUCTION
NCT01797120,EX,NCT01797120-0068,8,FULVESTRANT,500,mg,SOLUTION,ONCE,INTRAMUSCULAR,2021-10-10,2021-10-10,169,169,INDUCTION
NCT01797120,EX,NCT01797120-0068,9,FULVESTRANT,500,mg,SOLUTION,ONCE,INTRAMUSCULAR,2021-11-07,2021-11-07,197,197,INDUCTION
NCT01797120,EX,NCT01797120-0068,10,FULVESTRANT,500,mg,SOLUTION,ONCE,INTRAMUSCULAR,2021-12-05,2021-12-05,225,225,INDUCTION
NCT01797120,EX,NCT01797120-0068,11,FULVESTRANT,500,mg,SOLUTION,ONCE,INTRAMUSCULAR,2022-01-02,2022-01-02,253,253,INDUCTION
NCT01797120,EX,NCT01797120-0068,13,PLACEBO,0,mg,TABLET,QD,ORAL,2021-04-25,2022-01-03,1,254,INDUCTION
NCT01797120,EX,NCT01797120-0069,1,FULVESTRANT,250,mg,SOLUTION,ONCE,INTRAMUSCULAR,2021-01-30,2021-01-30,1,1,INDUCTION
NCT01797120,EX,NCT01797120-0069,2,FULVESTRANT,250,mg,SOLUTION,ONCE,INTRAMUSCULAR,2021-02-13,2021-02-13,15,15,INDUCTION
NCT01797120,EX,NCT01797120-0069,3,FULVESTRANT,500,mg,SOLUTION,ONCE,INTRAMUSCULAR,2021-02-27,2021-02-27,29,29,INDUCTION
NCT01797120,EX,NCT01797120-0069,4,FULVESTRANT,500,mg,SOLUTION,ONCE,INTRAMUSCULAR,2021-03-27,2021-03-27,57,57,INDUCTION
NCT01797120,EX,NCT01797120-0069,5,FULVESTRANT,500,mg,SOLUTION,ONCE,INTRAMUSCULAR,2021-04-24,2021-04-24,85,85,INDUCTION
NCT01797120,EX,NCT01797120-0069,6,FULVESTRANT,500,mg,SOLUTION,ONCE,INTRAMUSCULAR,2021-05-22,2021-05-22,113,113,INDUCTION
NCT01797120,EX,NCT01797120-0069,7,FULVESTRANT,500,mg,SOLUTION,ONCE,INTRAMUSCULAR,2021-06-19,2021-06-19,141,141,INDUCTION
NCT01797120,EX,NCT01797120-0069,8,FULVESTRANT,500,mg,SOLUTION,ONCE,INTRAMUSCULAR,2021-07-17,2021-07-17,169,169,INDUCTION
NCT01797120,EX,NCT01797120-0069,9,FULVESTRANT,500,mg,SOLUTION,ONCE,INTRAMUSCULAR,2021-08-14,2021-08-14,197,197,INDUCTION
NCT01797120,EX,NCT01797120-0069,10,FULVESTRANT,500,mg,SOLUTION,ONCE,INTRAMUSCULAR,2021-09-11,2021-09-11,225,225,INDUCTION
NCT01797120,EX,NCT01797120-0069,11,FULVESTRANT,500,mg,SOLUTION,ONCE,INTRAMUSCULAR,2021-10-09,2021-10-09,253,253,INDUCTION
NCT01797120,EX,NCT01797120-0069,12,EVEROLIMUS,10,mg,TABLET,QD,ORAL,2021-01-30,2022-06-19,1,506,INDUCTION
NCT01797120,EX,NCT01797120-0070,1,FULVESTRANT,250,mg,SOLUTION,ONCE,INTRAMUSCULAR,2021-10-17,2021-10-17,1,1,INDUCTION
NCT01797120,EX,NCT01797120-0070,2,FULVESTRANT,250,mg,SOLUTION,ONCE,INTRAMUSCULAR,2021-10-31,2021-10-31,15,15,INDUCTION
NCT01797120,EX,NCT01797120-0070,3,FULVESTRANT,500,mg,SOLUTION,ONCE,INTRAMUSCULAR,2021-11-14,2021-11-14,29,29,INDUCTION
NCT01797120,EX,NCT01797120-0070,4,FULVESTRANT,500,mg,SOLUTION,ONCE,INTRAMUSCULAR,2021-12-12,2021-12-12,57,57,INDUCTION
NCT01797120,EX,NCT01797120-0070,5,FULVESTRANT,500,mg,SOLUTION,ONCE,INTRAMUSCULAR,2022-01-09,2022-01-09,85,85,INDUCTION
NCT01797120,EX,NCT01797120-0070,6,EVEROLIMUS,10,mg,TABLET,QD,ORAL,2021-10-17,2022-09-19,1,338,INDUCTION
NCT01797120,EX,NCT01797120-0071,1,FULVESTRANT,250,mg,SOLUTION,ONCE,INTRAMUSCULAR,2021-05-27,2021-05-27,1,1,INDUCTION
NCT01797120,EX,NCT01797120-0071,2,FULVESTRANT,250,mg,SOLUTION,ONCE,INTRAMUSCULAR,2021-06-10,2021-06-10,15,15,INDUCTION
NCT01797120,EX,NCT01797120-0071,3,FULVESTRANT,500,mg,SOLUTION,ONCE,INTRAMUSCULAR,2021-06-24,2021-06-24,29,29,INDUCTION
NCT01797120,EX,NCT01797120-0071,4,FULVESTRANT,500,mg,SOLUTION,ONCE,INTRAMUSCULAR,2021-07-22,2021-07-22,57,57,INDUCTION
NCT01797120,EX,NCT01797120-0071,5,FULVESTRANT,500,mg,SOLUTION,ONCE,INTRAMUSCULAR,2021-08-19,2021-08-19,85,85,INDUCTION
NCT01797120,EX,NCT01797120-0071,23,PLACEBO,0,mg,TABLET,QD,ORAL,2021-05-27,2021-08-20,1,86,INDUCTION
NCT01797120,EX,NCT01797120-0072,1,FULVESTRANT,250,mg,SOLUTION,ONCE,INTRAMUSCULAR,2021-10-01,2021-10-01,1,1,INDUCTION
NCT01797120,EX,NCT01797120-0072,2,FULVESTRANT,250,mg,SOLUTION,ONCE,INTRAMUSCULAR,2021-10-15,2021-10-15,15,15,INDUCTION
NCT01797120,EX,NCT01797120-0072,3,FULVESTRANT,500,mg,SOLUTION,ONCE,INTRAMUSCULAR,2021-10-29,2021-10-29,29,29,INDUCTION
NCT01797120,EX,NCT01797120-0072,4,FULVESTRANT,500,mg,SOLUTION,ONCE,INTRAMUSCULAR,2021-11-26,2021-11-26,57,57,INDUCTION
NCT01797120,EX,NCT01797120-0072,5,FULVESTRANT,500,mg,SOLUTION,ONCE,INTRAMUSCULAR,2021-12-24,2021-12-24,85,85,INDUCTION
NCT01797120,EX,NCT01797120-0072,6,FULVESTRANT,500,mg,SOLUTION,ONCE,INTRAMUSCULAR,2022-01-21,2022-01-21,113,113,INDUCTION
NCT01797120,EX,NCT01797120-0072,7,FULVESTRANT,500,mg,SOLUTION,ONCE,INTRAMUSCULAR,2022-02-18,2022-02-18,141,141,INDUCTION
NCT01797120,EX,NCT01797120-0072,8,FULVESTRANT,500,mg,SOLUTION,ONCE,INTRAMUSCULAR,2022-03-18,2022-03-18,169,169,INDUCTION
NCT01797120,EX,NCT01797120-0072,9,FULVESTRANT,500,mg,SOLUTION,ONCE,INTRAMUSCULAR,2022-04-15,2022-04-15,197,197,INDUCTION
NCT01797120,EX,NCT01797120-0072,10,FULVESTRANT,500,mg,SOLUTION,ONCE,INTRAMUSCULAR,2022-05-13,2022-05-13,225,225,INDUCTION
NCT01797120,EX,NCT01797120-0072,11,FULVESTRANT,500,mg,SOLUTION,ONCE,INTRAMUSCULAR,2022-06-10,2022-06-10,253,253,INDUCTION
NCT01797120,EX,NCT01797120-0072,20,EVEROLIMUS,10,mg,TABLET,QD,ORAL,2021-10-01,2022-06-11,1,254,INDUCTION
NCT01797120,EX,NCT01797120-0073,1,FULVESTRANT,250,mg,SOLUTION,ONCE,INTRAMUSCULAR,2021-08-10,2021-08-10,1,1,INDUCTION
NCT01797120,EX,NCT01797120-0073,2,FULVESTRANT,250,mg,SOLUTION,ONCE,INTRAMUSCULAR,2021-08-24,2021-08-24,15,15,INDUCTION
NCT01797120,EX,NCT01797120-0073,3,FULVESTRANT,500,mg,SOLUTION,ONCE,INTRAMUSCULAR,2021-09-07,2021-09-07,29,29,INDUCTION
NCT01797120,EX,NCT01797120-0073,4,FULVESTRANT,500,mg,SOLUTION,ONCE,INTRAMUSCULAR,2021-10-05,2021-10-05,57,57,INDUCTION
NCT01797120,EX,NCT01797120-0073,5,FULVESTRANT,500,mg,SOLUTION,ONCE,INTRAMUSCULAR,2021-11-02,2021-11-02,85,85,INDUCTION
NCT01797120,EX,NCT01797120-0073,6,FULVESTRANT,500,mg,SOLUTION,ONCE,INTRAMUSCULAR,2021-11-30,2021-11-30,113,113,INDUCTION
NCT01797120,EX,NCT01797120-0073,7,FULVESTRANT,500,mg,SOLUTION,ONCE,INTRAMUSCULAR,2021-12-28,2021-12-28,141,141,INDUCTION
NCT01797120,EX,NCT01797120-0073,8,FULVESTRANT,500,mg,SOLUTION,ONCE,INTRAMUSCULAR,2022-01-25,2022-01-25,169,169,INDUCTION
NCT01797120,EX,NCT01797120-0073,14,PLACEBO,0,mg,TABLET,QD,ORAL,2021-08-10,2022-01-26,1,170,INDUCTION
NCT01797120,EX,NCT01797120-0074,1,FULVESTRANT,250,mg,SOLUTION,ONCE,INTRAMUSCULAR,2021-12-07,2021-12-07,1,1,INDUCTION
NCT01797120,EX,NCT01797120-0074,2,FULVESTRANT,250,mg,SOLUTION,ONCE,INTRAMUSCULAR,2021-12-21,2021-12-21,15,15,INDUCTION
NCT01797120,EX,NCT01797120-0074,3,FULVESTRANT,500,mg,SOLUTION,ONCE,INTRAMUSCULAR,2022-01-04,2022-01-04,29,29,INDUCTION
NCT01797120,EX,NCT01797120-0074,4,FULVESTRANT,500,mg,SOLUTION,ONCE,INTRAMUSCULAR,2022-02-01,2022-02-01,57,57,INDUCTION
NCT01797120,EX,NCT01797120-0074,5,FULVESTRANT,500,mg,SOLUTION,ONCE,INTRAMUSCULAR,2022-03-01,2022-03-01,85,85,INDUCTION
NCT01797120,EX,NCT01797120-0074,6,FULVESTRANT,500,mg,SOLUTION,ONCE,INTRAMUSCULAR,2022-03-29,2022-03-29,113,113,INDUCTION
NCT01797120,EX,NCT01797120-0074,7,FULVESTRANT,500,mg,SOLUTION,ONCE,INTRAMUSCULAR,2022-04-26,2022-04-26,141,141,INDUCTION
NCT01797120,EX,NCT01797120-0074,8,FULVESTRANT,500,mg,SOLUTION,ONCE,INTRAMUSCULAR,2022-05-24,2022-05-24,169,169,INDUCTION
NCT01797120,EX,NCT01797120-0074,11,PLACEBO,0,mg,TABLET,QD,ORAL,2021-12-07,2022-05-25,1,170,INDUCTION
NCT01797120,EX,NCT01797120-0075,1,FULVESTRANT,250,mg,SOLUTION,ONCE,INTRAMUSCULAR,2022-05-25,2022-05-25,1,1,INDUCTION
NCT01797120,EX,NCT01797120-0075,2,FULVESTRANT,250,mg,SOLUTION,ONCE,INTRAMUSCULAR,2022-06-08,2022-06-08,15,15,INDUCTION
NCT01797120,EX,NCT01797120-0075,3,FULVESTRANT,500,mg,SOLUTION,ONCE,INTRAMUSCULAR,2022-06-22,2022-06-22,29,29,INDUCTION
NCT01797120,EX,NCT01797120-0075,4,FULVESTRANT,500,mg,SOLUTION,ONCE,INTRAMUSCULAR,2022-07-20,2022-07-20,57,57,INDUCTION
NCT01797120,EX,NCT01797120-0075,5,FULVESTRANT,500,mg,SOLUTION,ONCE,INTRAMUSCULAR,2022-08-17,2022-08-17,85,85,INDUCTION
NCT01797120,EX,NCT01797120-0075,6,FULVESTRANT,500,mg,SOLUTION,ONCE,INTRAMUSCULAR,2022-09-14,2022-09-14,113,113,INDUCTION
NCT01797120,EX,NCT01797120-0075,7,FULVESTRANT,500,mg,SOLUTION,ONCE,INTRAMUSCULAR,2022-10-12,2022-10-12,141,141,INDUCTION
NCT01797120,EX,NCT01797120-0075,8,PLACEBO,0,mg,TABLET,QD,ORAL,2022-05-25,2022-11-10,1,170,INDUCTION
NCT01797120,EX,NCT01797120-0076,1,FULVESTRANT,250,mg,SOLUTION,ONCE,INTRAMUSCULAR,2022-05-30,2022-05-30,1,1,INDUCTION
NCT01797120,EX,NCT01797120-0076,2,FULVESTRANT,250,mg,SOLUTION,ONCE,INTRAMUSCULAR,2022-06-13,2022-06-13,15,15,INDUCTION
NCT01797120,EX,NCT01797120-0076,3,FULVESTRANT,500,mg,SOLUTION,ONCE,INTRAMUSCULAR,2022-06-27,2022-06-27,29,29,INDUCTION
NCT01797120,EX,NCT01797120-0076,4,FULVESTRANT,500,mg,SOLUTION,ONCE,INTRAMUSCULAR,2022-07-25,2022-07-25,57,57,INDUCTION
NCT01797120,EX,NCT01797120-0076,5,FULVESTRANT,500,mg,SOLUTION,ONCE,INTRAMUSCULAR,2022-08-22,2022-08-22,85,85,INDUCTION
NCT01797120,EX,NCT01797120-0076,6,FULVESTRANT,500,mg,SOLUTION,ONCE,INTRAMUSCULAR,2022-09-19,2022-09-19,113,113,INDUCTION
NCT01797120,EX,NCT01797120-0076,7,FULVESTRANT,500,mg,SOLUTION,ONCE,INTRAMUSCULAR,2022-10-17,2022-10-17,141,141,INDUCTION
NCT01797120,EX,NCT01797120-0076,8,EVEROLIMUS,10,mg,TABLET,QD,ORAL,2022-05-30,2023-07-25,1,422,INDUCTION
NCT01797120,EX,NCT01797120-0077,1,FULVESTRANT,250,mg,SOLUTION,ONCE,INTRAMUSCULAR,2021-03-11,2021-03-11,1,1,INDUCTION
NCT01797120,EX,NCT01797120-0077,2,FULVESTRANT,250,mg,SOLUTION,ONCE,INTRAMUSCULAR,2021-03-25,2021-03-25,15,15,INDUCTION
NCT01797120,EX,NCT01797120-0077,3,FULVESTRANT,500,mg,SOLUTION,ONCE,INTRAMUSCULAR,2021-04-08,2021-04-08,29,29,INDUCTION
NCT01797120,EX,NCT01797120-0077,4,FULVESTRANT,500,mg,SOLUTION,ONCE,INTRAMUSCULAR,2021-05-06,2021-05-06,57,57,INDUCTION
NCT01797120,EX,NCT01797120-0077,5,FULVESTRANT,500,mg,SOLUTION,ONCE,INTRAMUSCULAR,2021-06-03,2021-06-03,85,85,INDUCTION
NCT01797120,EX,NCT01797120-0077,6,FULVESTRANT,500,mg,SOLUTION,ONCE,INTRAMUSCULAR,2021-07-01,2021-07-01,113,113,INDUCTION
NCT01797120,EX,NCT01797120-0077,7,FULVESTRANT,500,mg,SOLUTION,ONCE,INTRAMUSCULAR,2021-07-29,2021-07-29,141,141,INDUCTION
NCT01797120,EX,NCT01797120-0077,8,FULVESTRANT,500,mg,SOLUTION,ONCE,INTRAMUSCULAR,2021-08-26,2021-08-26,169,169,INDUCTION
NCT01797120,EX,NCT01797120-0077,9,PLACEBO,0,mg,TABLET,QD,ORAL,2021-03-11,2021-09-16,1,190,INDUCTION
NCT01797120,EX,NCT01797120-0078,1,FULVESTRANT,250,mg,SOLUTION,ONCE,INTRAMUSCULAR,2021-12-24,2021-12-24,1,1,INDUCTION
NCT01797120,EX,NCT01797120-0078,2,FULVESTRANT,250,mg,SOLUTION,ONCE,INTRAMUSCULAR,2022-01-07,2022-01-07,15,15,INDUCTION
NCT01797120,EX,NCT01797120-0078,3,FULVESTRANT,500,mg,SOLUTION,ONCE,INTRAMUSCULAR,2022-01-21,2022-01-21,29,29,INDUCTION
NCT01797120,EX,NCT01797120-0078,4,FULVESTRANT,500,mg,SOLUTION,ONCE,INTRAMUSCULAR,2022-02-18,2022-02-18,57,57,INDUCTION
NCT01797120,EX,NCT01797120-0078,5,FULVESTRANT,500,mg,SOLUTION,ONCE,INTRAMUSCULAR,2022-03-18,2022-03-18,85,85,INDUCTION
NCT01797120,EX,NCT01797120-0078,6,FULVESTRANT,500,mg,SOLUTION,ONCE,INTRAMUSCULAR,2022-04-15,2022-04-15,113,113,INDUCTION
NCT01797120,EX,NCT01797120-0078,7,FULVESTRANT,500,mg,SOLUTION,ONCE,INTRAMUSCULAR,2022-05-13,2022-05-13,141,141,INDUCTION
NCT01797120,EX,NCT01797120-0078,8,FULVESTRANT,500,mg,SOLUTION,ONCE,INTRAMUSCULAR,2022-06-10,2022-06-10,169,169,INDUCTION
NCT01797120,EX,NCT01797120-0078,9,EVEROLIMUS,10,mg,TABLET,QD,ORAL,2021-12-24,2022-06-11,1,170,INDUCTION
NCT01797120,EX,NCT01797120-0079,1,FULVESTRANT,250,mg,SOLUTION,ONCE,INTRAMUSCULAR,2022-07-11,2022-07-11,1,1,INDUCTION
NCT01797120,EX,NCT01797120-0079,2,FULVESTRANT,250,mg,SOLUTION,ONCE,INTRAMUSCULAR,2022-07-25,2022-07-25,15,15,INDUCTION
NCT01797120,EX,NCT01797120-0079,3,FULVESTRANT,500,mg,SOLUTION,ONCE,INTRAMUSCULAR,2022-08-08,2022-08-08,29,29,INDUCTION
NCT01797120,EX,NCT01797120-0079,4,FULVESTRANT,500,mg,SOLUTION,ONCE,INTRAMUSCULAR,2022-09-05,2022-09-05,57,57,INDUCTION
NCT01797120,EX,NCT01797120-0079,5,FULVESTRANT,500,mg,SOLUTION,ONCE,INTRAMUSCULAR,2022-10-03,2022-10-03,85,85,INDUCTION
NCT01797120,EX,NCT01797120-0079,6,FULVESTRANT,500,mg,SOLUTION,ONCE,INTRAMUSCULAR,2022-10-31,2022-10-31,113,113,INDUCTION
NCT01797120,EX,NCT01797120-0079,7,FULVESTRANT,500,mg,SOLUTION,ONCE,INTRAMUSCULAR,2022-11-28,2022-11-28,141,141,INDUCTION
NCT01797120,EX,NCT01797120-0079,8,FULVESTRANT,500,mg,SOLUTION,ONCE,INTRAMUSCULAR,2022-12-26,2022-12-26,169,169,INDUCTION
NCT01797120,EX,NCT01797120-0079,9,FULVESTRANT,500,mg,SOLUTION,ONCE,INTRAMUSCULAR,2023-01-23,2023-01-23,197,197,INDUCTION
NCT01797120,EX,NCT01797120-0079,10,FULVESTRANT,500,mg,SOLUTION,ONCE,INTRAMUSCULAR,2023-02-20,2023-02-20,225,225,INDUCTION
NCT01797120,EX,NCT01797120-0079,11,FULVESTRANT,500,mg,SOLUTION,ONCE,INTRAMUSCULAR,2023-03-20,2023-03-20,253,253,INDUCTION
NCT01797120,EX,NCT01797120-0079,12,FULVESTRANT,500,mg,SOLUTION,ONCE,INTRAMUSCULAR,2023-04-17,2023-04-17,281,281,INDUCTION
NCT01797120,EX,NCT01797120-0079,13,FULVESTRANT,500,mg,SOLUTION,ONCE,INTRAMUSCULAR,2023-05-15,2023-05-15,309,309,INDUCTION
NCT01797120,EX,NCT01797120-0079,14,FULVESTRANT,500,mg,SOLUTION,ONCE,INTRAMUSCULAR,2023-06-12,2023-06-12,337,337,INDUCTION
NCT01797120,EX,NCT01797120-0079,15,FULVESTRANT,500,mg,SOLUTION,ONCE,INTRAMUSCULAR,2023-07-10,2023-07-10,365,365,CONTINUATION
NCT01797120,EX,NCT01797120-0079,16,FULVESTRANT,500,mg,SOLUTION,ONCE,INTRAMUSCULAR,2023-08-07,2023-08-07,393,393,CONTINUATION
NCT01797120,EX,NCT01797120-0079,17,FULVESTRANT,500,mg,SOLUTION,ONCE,INTRAMUSCULAR,2023-09-04,2023-09-04,421,421,CONTINUATION
NCT01797120,EX,NCT01797120-0079,18,EVEROLIMUS,10,mg,TABLET,QD,ORAL,2022-07-11,2025-09-30,1,1178,INDUCTION
NCT01797120,EX,NCT01797120-0080,1,FULVESTRANT,250,mg,SOLUTION,ONCE,INTRAMUSCULAR,2021-11-19,2021-11-19,1,1,INDUCTION
NCT01797120,EX,NCT01797120-0080,2,FULVESTRANT,250,mg,SOLUTION,ONCE,INTRAMUSCULAR,2021-12-03,2021-12-03,15,15,INDUCTION
NCT01797120,EX,NCT01797120-0080,3,FULVESTRANT,500,mg,SOLUTION,ONCE,INTRAMUSCULAR,2021-12-17,2021-12-17,29,29,INDUCTION
NCT01797120,EX,NCT01797120-0080,4,FULVESTRANT,500,mg,SOLUTION,ONCE,INTRAMUSCULAR,2022-01-14,2022-01-14,57,57,INDUCTION
NCT01797120,EX,NCT01797120-0080,5,FULVESTRANT,500,mg,SOLUTION,ONCE,INTRAMUSCULAR,2022-02-11,2022-02-11,85,85,INDUCTION
NCT01797120,EX,NCT01797120-0080,19,PLACEBO,0,mg,TABLET,QD,ORAL,2021-11-19,2022-02-12,1,86,INDUCTION
NCT01797120,EX,NCT01797120-0081,1,FULVESTRANT,250,mg,SOLUTION,ONCE,INTRAMUSCULAR,2022-09-16,2022-09-16,1,1,INDUCTION
NCT01797120,EX,NCT01797120-0081,2,FULVESTRANT,250,mg,SOLUTION,ONCE,INTRAMUSCULAR,2022-09-30,2022-09-30,15,15,INDUCTION
NCT01797120,EX,NCT01797120-0081,3,FULVESTRANT,500,mg,SOLUTION,ONCE,INTRAMUSCULAR,2022-10-14,2022-10-14,29,29,INDUCTION
NCT01797120,EX,NCT01797120-0081,4,FULVESTRANT,500,mg,SOLUTION,ONCE,INTRAMUSCULAR,2022-11-11,2022-11-11,57,57,INDUCTION
NCT01797120,EX,NCT01797120-0081,5,FULVESTRANT,500,mg,SOLUTION,ONCE,INTRAMUSCULAR,2022-12-09,2022-12-09,85,85,INDUCTION
NCT01797120,EX,NCT01797120-0081,6,FULVESTRANT,500,mg,SOLUTION,ONCE,INTRAMUSCULAR,2023-01-06,2023-01-06,113,113,INDUCTION
NCT01797120,EX,NCT01797120-0081,7,FULVESTRANT,500,mg,SOLUTION,ONCE,INTRAMUSCULAR,2023-02-03,2023-02-03,141,141,INDUCTION
NCT01797120,EX,NCT01797120-0081,8,FULVESTRANT,500,mg,SOLUTION,ONCE,INTRAMUSCULAR,2023-03-03,2023-03-03,169,169,INDUCTION
NCT01797120,EX,NCT01797120-0081,9,FULVESTRANT,500,mg,SOLUTION,ONCE,INTRAMUSCULAR,2023-03-31,2023-03-31,197,197,INDUCTION
NCT01797120,EX,NCT01797120-0081,10,FULVESTRANT,500,mg,SOLUTION,ONCE,INTRAMUSCULAR,2023-04-28,2023-04-28,225,225,INDUCTION
NCT01797120,EX,NCT01797120-0081,11,FULVESTRANT,500,mg,SOLUTION,ONCE,INTRAMUSCULAR,2023-05-26,2023-05-26,253,253,INDUCTION
NCT01797120,EX,NCT01797120-0081,12,PLACEBO,0,mg,TABLET,QD,ORAL,2022-09-16,2024-04-27,1,590,INDUCTION
NCT01797120,EX,NCT01797120-0082,1,FULVESTRANT,250,mg,SOLUTION,ONCE,INTRAMUSCULAR,2021-04-02,2021-04-02,1,1,INDUCTION
NCT01797120,EX,NCT01797120-0082,2,FULVESTRANT,250,mg,SOLUTION,ONCE,INTRAMUSCULAR,2021-04-16,2021-04-16,15,15,INDUCTION
NCT01797120,EX,NCT01797120-0082,3,FULVESTRANT,500,mg,SOLUTION,ONCE,INTRAMUSCULAR,2021-04-30,2021-04-30,29,29,INDUCTION
NCT01797120,EX,NCT01797120-0082,4,FULVESTRANT,500,mg,SOLUTION,ONCE,INTRAMUSCULAR,2021-05-28,2021-05-28,57,57,INDUCTION
NCT01797120,EX,NCT01797120-0082,5,FULVESTRANT,500,mg,SOLUTION,ONCE,INTRAMUSCULAR,2021-06-25,2021-06-25,85,85,INDUCTION
NCT01797120,EX,NCT01797120-0082,6,FULVESTRANT,500,mg,SOLUTION,ONCE,INTRAMUSCULAR,2021-07-23,2021-07-23,113,113,INDUCTION
NCT01797120,EX,NCT01797120-0082,7,FULVESTRANT,500,mg,SOLUTION,ONCE,INTRAMUSCULAR,2021-08-20,2021-08-20,141,141,INDUCTION
NCT01797120,EX,NCT01797120-0082,8,EVEROLIMUS,10,mg,TABLET,QD,ORAL,2021-04-02,2022-08-20,1,506,INDUCTION
NCT01797120,EX,NCT01797120-0083,1,FULVESTRANT,250,mg,SOLUTION,ONCE,INTRAMUSCULAR,2021-12-08,2021-12-08,1,1,INDUCTION
NCT01797120,EX,NCT01797120-0083,2,FULVESTRANT,250,mg,SOLUTION,ONCE,INTRAMUSCULAR,2021-12-22,2021-12-22,15,15,INDUCTION
NCT01797120,EX,NCT01797120-0083,3,FULVESTRANT,500,mg,SOLUTION,ONCE,INTRAMUSCULAR,2022-01-05,2022-01-05,29,29,INDUCTION
NCT01797120,EX,NCT01797120-0083,4,FULVESTRANT,500,mg,SOLUTION,ONCE,INTRAMUSCULAR,2022-02-02,2022-02-02,57,57,INDUCTION
NCT01797120,EX,NCT01797120-0083,5,FULVESTRANT,500,mg,SOLUTION,ONCE,INTRAMUSCULAR,2022-03-02,2022-03-02,85,85,INDUCTION
NCT01797120,EX,NCT01797120-0083,6,FULVESTRANT,500,mg,SOLUTION,ONCE,INTRAMUSCULAR,2022-03-30,2022-03-30,113,113,INDUCTION
NCT01797120,EX,NCT01797120-0083,7,FULVESTRANT,500,mg,SOLUTION,ONCE,INTRAMUSCULAR,2022-04-27,2022-04-27,141,141,INDUCTION
NCT01797120,EX,NCT01797120-0083,8,FULVESTRANT,500,mg,SOLUTION,ONCE,INTRAMUSCULAR,2022-05-25,2022-05-25,169,169,INDUCTION
NCT01797120,EX,NCT01797120-0083,9,FULVESTRANT,500,mg,SOLUTION,ONCE,INTRAMUSCULAR,2022-06-22,2022-06-22,197,197,INDUCTION
NCT01797120,EX,NCT01797120-0083,10,FULVESTRANT,500,mg,SOLUTION,ONCE,INTRAMUSCULAR,2022-07-20,2022-07-20,225,225,INDUCTION
NCT01797120,EX,NCT01797120-0083,11,FULVESTRANT,500,mg,SOLUTION,ONCE,INTRAMUSCULAR,2022-08-17,2022-08-17,253,253,INDUCTION
NCT01797120,EX,NCT01797120-0083,12,FULVESTRANT,500,mg,SOLUTION,ONCE,INTRAMUSCULAR,2022-09-14,2022-09-14,281,281,INDUCTION
NCT01797120,EX,NCT01797120-0083,13,FULVESTRANT,500,mg,SOLUTION,ONCE,INTRAMUSCULAR,2022-10-12,2022-10-12,309,309,INDUCTION
NCT01797120,EX,NCT01797120-0083,14,FULVESTRANT,500,mg,SOLUTION,ONCE,INTRAMUSCULAR,2022-11-09,2022-11-09,337,337,INDUCTION
NCT01797120,EX,NCT01797120-0083,15,FULVESTRANT,500,mg,SOLUTION,ONCE,INTRAMUSCULAR,2022-12-07,2022-12-07,365,365,CONTINUATION
NCT01797120,EX,NCT01797120-0083,16,FULVESTRANT,500,mg,SOLUTION,ONCE,INTRAMUSCULAR,2023-01-04,2023-01-04,393,393,CONTINUATION
NCT01797120,EX,NCT01797120-0083,17,PLACEBO,0,mg,TABLET,QD,ORAL,2021-12-08,2023-07-20,1,590,INDUCTION
NCT01797120,EX,NCT01797120-0084,1,FULVESTRANT,250,mg,SOLUTION,ONCE,INTRAMUSCULAR,2022-02-28,2022-02-28,1,1,INDUCTION
NCT01797120,EX,NCT01797120-0084,2,FULVESTRANT,250,mg,SOLUTION,ONCE,INTRAMUSCULAR,2022-03-14,2022-03-14,15,15,INDUCTION
NCT01797120,EX,NCT01797120-0084,3,FULVESTRANT,500,mg,SOLUTION,ONCE,INTRAMUSCULAR,2022-03-28,2022-03-28,29,29,INDUCTION
NCT01797120,EX,NCT01797120-0084,4,FULVESTRANT,500,mg,SOLUTION,ONCE,INTRAMUSCULAR,2022-04-25,2022-04-25,57,57,INDUCTION
NCT01797120,EX,NCT01797120-0084,5,FULVESTRANT,500,mg,SOLUTION,ONCE,INTRAMUSCULAR,2022-05-23,2022-05-23,85,85,INDUCTION
NCT01797120,EX,NCT01797120-0084,6,FULVESTRANT,500,mg,SOLUTION,ONCE,INTRAMUSCULAR,2022-06-20,2022-06-20,113,113,INDUCTION
NCT01797120,EX,NCT01797120-0084,7,FULVESTRANT,500,mg,SOLUTION,ONCE,INTRAMUSCULAR,2022-07-18,2022-07-18,141,141,INDUCTION
NCT01797120,EX,NCT01797120-0084,8,FULVESTRANT,500,mg,SOLUTION,ONCE,INTRAMUSCULAR,2022-08-15,2022-08-15,169,169,INDUCTION
NCT01797120,EX,NCT01797120-0084,9,FULVESTRANT,500,mg,SOLUTION,ONCE,INTRAMUSCULAR,2022-09-12,2022-09-12,197,197,INDUCTION
NCT01797120,EX,NCT01797120-0084,10,FULVESTRANT,500,mg,SOLUTION,ONCE,INTRAMUSCULAR,2022-10-10,2022-10-10,225,225,INDUCTION
NCT01797120,EX,NCT01797120-0084,11,PLACEBO,0,mg,TABLET,QD,ORAL,2022-02-28,2023-01-31,1,338,INDUCTION
NCT01797120,EX,NCT01797120-0085,1,FULVESTRANT,250,mg,SOLUTION,ONCE,INTRAMUSCULAR,2022-07-06,2022-07-06,1,1,INDUCTION
NCT01797120,EX,NCT01797120-0085,2,FULVESTRANT,250,mg,SOLUTION,ONCE,INTRAMUSCULAR,2022-07-20,2022-07-20,15,15,INDUCTION
NCT01797120,EX,NCT01797120-0085,3,FULVESTRANT,500,mg,SOLUTION,ONCE,INTRAMUSCULAR,2022-08-03,2022-08-03,29,29,INDUCTION
NCT01797120,EX,NCT01797120-0085,4,FULVESTRANT,500,mg,SOLUTION,ONCE,INTRAMUSCULAR,2022-08-31,2022-08-31,57,57,INDUCTION
NCT01797120,EX,NCT01797120-0085,5,FULVESTRANT,500,mg,SOLUTION,ONCE,INTRAMUSCULAR,2022-09-28,2022-09-28,85,85,INDUCTION
NCT01797120,EX,NCT01797120-0085,23,PLACEBO,0,mg,TABLET,QD,ORAL,2022-07-06,2022-09-29,1,86,INDUCTION
NCT01797120,EX,NCT01797120-0086,1,FULVESTRANT,250,mg,SOLUTION,ONCE,INTRAMUSCULAR,2022-10-25,2022-10-25,1,1,INDUCTION
NCT01797120,EX,NCT01797120-0086,2,FULVESTRANT,250,mg,SOLUTION,ONCE,INTRAMUSCULAR,2022-11-08,2022-11-08,15,15,INDUCTION
NCT01797120,EX,NCT01797120-0086,3,FULVESTRANT,500,mg,SOLUTION,ONCE,INTRAMUSCULAR,2022-11-22,2022-11-22,29,29,INDUCTION
NCT01797120,EX,NCT01797120-0086,4,FULVESTRANT,500,mg,SOLUTION,ONCE,INTRAMUSCULAR,2022-12-20,2022-12-20,57,57,INDUCTION
NCT01797120,EX,NCT01797120-0086,5,FULVESTRANT,500,mg,SOLUTION,ONCE,INTRAMUSCULAR,2023-01-17,2023-01-17,85,85,INDUCTION
NCT01797120,EX,NCT01797120-0086,6,FULVESTRANT,500,mg,SOLUTION,ONCE,INTRAMUSCULAR,2023-02-14,2023-02-14,113,113,INDUCTION
NCT01797120,EX,NCT01797120-0086,7,FULVESTRANT,500,mg,SOLUTION,ONCE,INTRAMUSCULAR,2023-03-14,2023-03-14,141,141,INDUCTION
NCT01797120,EX,NCT01797120-0086,8,FULVESTRANT,500,mg,SOLUTION,ONCE,INTRAMUSCULAR,2023-04-11,2023-04-11,169,169,INDUCTION
NCT01797120,EX,NCT01797120-0086,9,FULVESTRANT,500,mg,SOLUTION,ONCE,INTRAMUSCULAR,2023-05-09,2023-05-09,197,197,INDUCTION
NCT01797120,EX,NCT01797120-0086,10,FULVESTRANT,500,mg,SOLUTION,ONCE,INTRAMUSCULAR,2023-06-06,2023-06-06,225,225,INDUCTION
NCT01797120,EX,NCT01797120-0086,11,FULVESTRANT,500,mg,SOLUTION,ONCE,INTRAMUSCULAR,2023-07-04,2023-07-04,253,253,INDUCTION
NCT01797120,EX,NCT01797120-0086,12,FULVESTRANT,500,mg,SOLUTION,ONCE,INTRAMUSCULAR,2023-08-01,2023-08-01,281,281,INDUCTION
NCT01797120,EX,NCT01797120-0086,13,FULVESTRANT,500,mg,SOLUTION,ONCE,INTRAMUSCULAR,2023-08-29,2023-08-29,309,309,INDUCTION
NCT01797120,EX,NCT01797120-0086,14,FULVESTRANT,500,mg,SOLUTION,ONCE,INTRAMUSCULAR,2023-09-26,2023-09-26,337,337,INDUCTION
NCT01797120,EX,NCT01797120-0086,15,FULVESTRANT,500,mg,SOLUTION,ONCE,INTRAMUSCULAR,2023-10-24,2023-10-24,365,365,CONTINUATION
NCT01797120,EX,NCT01797120-0086,16,FULVESTRANT,500,mg,SOLUTION,ONCE,INTRAMUSCULAR,2023-11-21,2023-11-21,393,393,CONTINUATION
NCT01797120,EX,NCT01797120-0086,17,FULVESTRANT,500,mg,SOLUTION,ONCE,INTRAMUSCULAR,2023-12-19,2023-12-19,421,421,CONTINUATION
NCT01797120,EX,NCT01797120-0086,18,FULVESTRANT,500,mg,SOLUTION,ONCE,INTRAMUSCULAR,2024-01-16,2024-01-16,449,449,CONTINUATION
NCT01797120,EX,NCT01797120-0086,19,FULVESTRANT,500,mg,SOLUTION,ONCE,INTRAMUSCULAR,2024-02-13,2024-02-13,477,477,CONTINUATION
NCT01797120,EX,NCT01797120-0086,20,EVEROLIMUS,10,mg,TABLET,QD,ORAL,2022-10-25,2024-08-28,1,674,INDUCTION
NCT01797120,EX,NCT01797120-0087,1,FULVESTRANT,250,mg,SOLUTION,ONCE,INTRAMUSCULAR,2022-02-19,2022-02-19,1,1,INDUCTION
NCT01797120,EX,NCT01797120-0087,2,FULVESTRANT,250,mg,SOLUTION,ONCE,INTRAMUSCULAR,2022-03-05,2022-03-05,15,15,INDUCTION
NCT01797120,EX,NCT01797120-0087,3,FULVESTRANT,500,mg,SOLUTION,ONCE,INTRAMUSCULAR,2022-03-19,2022-03-19,29,29,INDUCTION
NCT01797120,EX,NCT01797120-0087,4,FULVESTRANT,500,mg,SOLUTION,ONCE,INTRAMUSCULAR,2022-04-16,2022-04-16,57,57,INDUCTION
NCT01797120,EX,NCT01797120-0087,5,FULVESTRANT,500,mg,SOLUTION,ONCE,INTRAMUSCULAR,2022-05-14,2022-05-14,85,85,INDUCTION
NCT01797120,EX,NCT01797120-0087,24,EVEROLIMUS,10,mg,TABLET,QD,ORAL,2022-02-19,2022-05-15,1,86,INDUCTION
NCT01797120,EX,NCT01797120-0088,1,FULVESTRANT,250,mg,SOLUTION,ONCE,INTRAMUSCULAR,2022-10-20,2022-10-20,1,1,INDUCTION
NCT01797120,EX,NCT01797120-0088,2,FULVESTRANT,250,mg,SOLUTION,ONCE,INTRAMUSCULAR,2022-11-03,2022-11-03,15,15,INDUCTION
NCT01797120,EX,NCT01797120-0088,3,FULVESTRANT,500,mg,SOLUTION,ONCE,INTRAMUSCULAR,2022-11-17,2022-11-17,29,29,INDUCTION
NCT01797120,EX,NCT01797120-0088,4,FULVESTRANT,500,mg,SOLUTION,ONCE,INTRAMUSCULAR,2022-12-15,2022-12-15,57,57,INDUCTION
NCT01797120,EX,NCT01797120-0088,5,FULVESTRANT,500,mg,SOLUTION,ONCE,INTRAMUSCULAR,2023-01-12,2023-01-12,85,85,INDUCTION
NCT01797120,EX,NCT01797120-0088,6,FULVESTRANT,500,mg,SOLUTION,ONCE,INTRAMUSCULAR,2023-02-09,2023-02-09,113,113,INDUCTION
NCT01797120,EX,NCT01797120-0088,7,FULVESTRANT,500,mg,SOLUTION,ONCE,INTRAMUSCULAR,2023-03-09,2023-03-09,141,141,INDUCTION
NCT01797120,EX,NCT01797120-0088,8,FULVESTRANT,500,mg,SOLUTION,ONCE,INTRAMUSCULAR,2023-04-06,2023-04-06,169,169,INDUCTION
NCT01797120,EX,NCT01797120-0088,22,EVEROLIMUS,10,mg,TABLET,QD,ORAL,2022-10-20,2023-04-07,1,170,INDUCTION
NCT01797120,EX,NCT01797120-0089,1,FULVESTRANT,250,mg,SOLUTION,ONCE,INTRAMUSCULAR,2022-12-12,2022-12-12,1,1,INDUCTION
NCT01797120,EX,NCT01797120-0089,2,FULVESTRANT,250,mg,SOLUTION,ONCE,INTRAMUSCULAR,2022-12-26,2022-12-26,15,15,INDUCTION
NCT01797120,EX,NCT01797120-0089,3,FULVESTRANT,500,mg,SOLUTION,ONCE,INTRAMUSCULAR,2023-01-09,2023-01-09,29,29,INDUCTION
NCT01797120,EX,NCT01797120-0089,4,FULVESTRANT,500,mg,SOLUTION,ONCE,INTRAMUSCULAR,2023-02-06,2023-02-06,57,57,INDUCTION
NCT01797120,EX,NCT01797120-0089,5,PLACEBO,0,mg,TABLET,QD,ORAL,2022-12-12,2023-08-22,1,254,INDUCTION
NCT01797120,EX,NCT01797120-0090,1,FULVESTRANT,250,mg,SOLUTION,ONCE,INTRAMUSCULAR,2021-10-02,2021-10-02,1,1,INDUCTION
NCT01797120,EX,NCT01797120-0090,2,FULVESTRANT,250,mg,SOLUTION,ONCE,INTRAMUSCULAR,2021-10-16,2021-10-16,15,15,INDUCTION
NCT01797120,EX,NCT01797120-0090,3,FULVESTRANT,500,mg,SOLUTION,ONCE,INTRAMUSCULAR,2021-10-30,2021-10-30,29,29,INDUCTION
NCT01797120,EX,NCT01797120-0090,4,FULVESTRANT,500,mg,SOLUTION,ONCE,INTRAMUSCULAR,2021-11-27,2021-11-27,57,57,INDUCTION
NCT01797120,EX,NCT01797120-0090,5,FULVESTRANT,500,mg,SOLUTION,ONCE,INTRAMUSCULAR,2021-12-25,2021-12-25,85,85,INDUCTION
NCT01797120,EX,NCT01797120-0090,6,PLACEBO,0,mg,TABLET,QD,ORAL,2021-10-02,2021-12-26,1,86,INDUCTION
NCT01797120,EX,NCT01797120-0091,1,FULVESTRANT,250,mg,SOLUTION,ONCE,INTRAMUSCULAR,2021-02-13,2021-02-13,1,1,INDUCTION
NCT01797120,EX,NCT01797120-0091,2,FULVESTRANT,250,mg,SOLUTION,ONCE,INTRAMUSCULAR,2021-02-27,2021-02-27,15,15,INDUCTION
NCT01797120,EX,NCT01797120-0091,3,FULVESTRANT,500,mg,SOLUTION,ONCE,INTRAMUSCULAR,2021-03-13,2021-03-13,29,29,INDUCTION
NCT01797120,EX,NCT01797120-0091,4,FULVESTRANT,500,mg,SOLUTION,ONCE,INTRAMUSCULAR,2021-04-10,2021-04-10,57,57,INDUCTION
NCT01797120,EX,NCT01797120-0091,5,FULVESTRANT,500,mg,SOLUTION,ONCE,INTRAMUSCULAR,2021-05-08,2021-05-08,85,85,INDUCTION
NCT01797120,EX,NCT01797120-0091,6,FULVESTRANT,500,mg,SOLUTION,ONCE,INTRAMUSCULAR,2021-06-05,2021-06-05,113,113,INDUCTION
NCT01797120,EX,NCT01797120-0091,7,FULVESTRANT,500,mg,SOLUTION,ONCE,INTRAMUSCULAR,2021-07-03,2021-07-03,141,141,INDUCTION
NCT01797120,EX,NCT01797120-0091,8,FULVESTRANT,500,mg,SOLUTION,ONCE,INTRAMUSCULAR,2021-07-31,2021-07-31,169,169,INDUCTION
NCT01797120,EX,NCT01797120-0091,9,FULVESTRANT,500,mg,SOLUTION,ONCE,INTRAMUSCULAR,2021-08-28,2021-08-28,197,197,INDUCTION
NCT01797120,EX,NCT01797120-0091,10,FULVESTRANT,500,mg,SOLUTION,ONCE,INTRAMUSCULAR,2021-09-25,2021-09-25,225,225,INDUCTION
NCT01797120,EX,NCT01797120-0091,11,FULVESTRANT,500,mg,SOLUTION,ONCE,INTRAMUSCULAR,2021-10-23,2021-10-23,253,253,INDUCTION
NCT01797120,EX,NCT01797120-0091,12,FULVESTRANT,500,mg,SOLUTION,ONCE,INTRAMUSCULAR,2021-11-20,2021-11-20,281,281,INDUCTION
NCT01797120,EX,NCT01797120-0091,13,FULVESTRANT,500,mg,SOLUTION,ONCE,INTRAMUSCULAR,2021-12-18,2021-12-18,309,309,INDUCTION
NCT01797120,EX,NCT01797120-0091,14,FULVESTRANT,500,mg,SOLUTION,ONCE,INTRAMUSCULAR,2022-01-15,2022-01-15,337,337,INDUCTION
NCT01797120,EX,NCT01797120-0091,15,FULVESTRANT,500,mg,SOLUTION,ONCE,INTRAMUSCULAR,2022-02-12,2022-02-12,365,365,CONTINUATION
NCT01797120,EX,NCT01797120-0091,16,FULVESTRANT,500,mg,SOLUTION,ONCE,INTRAMUSCULAR,2022-03-12,2022-03-12,393,393,CONTINUATION
NCT01797120,EX,NCT01797120-0091,17,FULVESTRANT,500,mg,SOLUTION,ONCE,INTRAMUSCULAR,2022-04-09,2022-04-09,421,421,CONTINUATION
NCT01797120,EX,NCT01797120-0091,18,FULVESTRANT,500,mg,SOLUTION,ONCE,INTRAMUSCULAR,2022-05-07,2022-05-07,449,449,CONTINUATION
NCT01797120,EX,NCT01797120-0091,19,FULVESTRANT,500,mg,SOLUTION,ONCE,INTRAMUSCULAR,2022-06-04,2022-06-04,477,477,CONTINUATION
NCT01797120,EX,NCT01797120-0091,20,FULVESTRANT,500,mg,SOLUTION,ONCE,INTRAMUSCULAR,2022-07-02,2022-07-02,505,505,CONTINUATION
NCT01797120,EX,NCT01797120-0091,22,EVEROLIMUS,10,mg,TABLET,QD,ORAL,2021-02-13,2022-07-03,1,506,INDUCTION
NCT01797120,EX,NCT01797120-0092,1,FULVESTRANT,250,mg,SOLUTION,ONCE,INTRAMUSCULAR,2021-03-25,2021-03-25,1,1,INDUCTION
NCT01797120,EX,NCT01797120-0092,2,FULVESTRANT,250,mg,SOLUTION,ONCE,INTRAMUSCULAR,2021-04-08,2021-04-08,15,15,INDUCTION
NCT01797120,EX,NCT01797120-0092,3,FULVESTRANT,500,mg,SOLUTION,ONCE,INTRAMUSCULAR,2021-04-22,2021-04-22,29,29,INDUCTION
NCT01797120,EX,NCT01797120-0092,4,FULVESTRANT,500,mg,SOLUTION,ONCE,INTRAMUSCULAR,2021-05-20,2021-05-20,57,57,INDUCTION
NCT01797120,EX,NCT01797120-0092,5,FULVESTRANT,500,mg,SOLUTION,ONCE,INTRAMUSCULAR,2021-06-17,2021-06-17,85,85,INDUCTION
NCT01797120,EX,NCT01797120-0092,6,FULVESTRANT,500,mg,SOLUTION,ONCE,INTRAMUSCULAR,2021-07-15,2021-07-15,113,113,INDUCTION
NCT01797120,EX,NCT01797120-0092,7,EVEROLIMUS,10,mg,TABLET,QD,ORAL,2021-03-25,2021-09-10,1,170,INDUCTION
NCT01797120,EX,NCT01797120-0093,1,FULVESTRANT,250,mg,SOLUTION,ONCE,INTRAMUSCULAR,2022-03-10,2022-03-10,1,1,INDUCTION
NCT01797120,EX,NCT01797120-0093,2,FULVESTRANT,250,mg,SOLUTION,ONCE,INTRAMUSCULAR,2022-03-24,2022-03-24,15,15,INDUCTION
NCT01797120,EX,NCT01797120-0093,3,FULVESTRANT,500,mg,SOLUTION,ONCE,INTRAMUSCULAR,2022-04-07,2022-04-07,29,29,INDUCTION
NCT01797120,EX,NCT01797120-0093,4,FULVESTRANT,500,mg,SOLUTION,ONCE,INTRAMUSCULAR,2022-05-05,2022-05-05,57,57,INDUCTION
NCT01797120,EX,NCT01797120-0093,5,FULVESTRANT,500,mg,SOLUTION,ONCE,INTRAMUSCULAR,2022-06-02,2022-06-02,85,85,INDUCTION
NCT01797120,EX,NCT01797120-0093,16,PLACEBO,0,mg,TABLET,QD,ORAL,2022-03-10,2022-06-03,1,86,INDUCTION
NCT01797120,EX,NCT01797120-0094,1,FULVESTRANT,250,mg,SOLUTION,ONCE,INTRAMUSCULAR,2021-04-04,2021-04-04,1,1,INDUCTION
NCT01797120,EX,NCT01797120-0094,2,FULVESTRANT,250,mg,SOLUTION,ONCE,INTRAMUSCULAR,2021-04-18,2021-04-18,15,15,INDUCTION
NCT01797120,EX,NCT01797120-0094,3,FULVESTRANT,500,mg,SOLUTION,ONCE,INTRAMUSCULAR,2021-05-02,2021-05-02,29,29,INDUCTION
NCT01797120,EX,NCT01797120-0094,4,FULVESTRANT,500,mg,SOLUTION,ONCE,INTRAMUSCULAR,2021-05-30,2021-05-30,57,57,INDUCTION
NCT01797120,EX,NCT01797120-0094,5,FULVESTRANT,500,mg,SOLUTION,ONCE,INTRAMUSCULAR,2021-06-27,2021-06-27,85,85,INDUCTION
NCT01797120,EX,NCT01797120-0094,6,FULVESTRANT,500,mg,SOLUTION,ONCE,INTRAMUSCULAR,2021-07-25,2021-07-25,113,113,INDUCTION
NCT01797120,EX,NCT01797120-0094,7,FULVESTRANT,500,mg,SOLUTION,ONCE,INTRAMUSCULAR,2021-08-22,2021-08-22,141,141,INDUCTION
NCT01797120,EX,NCT01797120-0094,8,FULVESTRANT,500,mg,SOLUTION,ONCE,INTRAMUSCULAR,2021-09-19,2021-09-19,169,169,INDUCTION
NCT01797120,EX,NCT01797120-0094,11,EVEROLIMUS,10,mg,TABLET,QD,ORAL,2021-04-04,2021-09-20,1,170,INDUCTION
NCT01797120,EX,NCT01797120-0095,1,FULVESTRANT,250,mg,SOLUTION,ONCE,INTRAMUSCULAR,2021-06-24,2021-06-24,1,1,INDUCTION
NCT01797120,EX,NCT01797120-0095,2,FULVESTRANT,250,mg,SOLUTION,ONCE,INTRAMUSCULAR,2021-07-08,2021-07-08,15,15,INDUCTION
NCT01797120,EX,NCT01797120-0095,3,FULVESTRANT,500,mg,SOLUTION,ONCE,INTRAMUSCULAR,2021-07-22,2021-07-22,29,29,INDUCTION
NCT01797120,EX,NCT01797120-0095,4,FULVESTRANT,500,mg,SOLUTION,ONCE,INTRAMUSCULAR,2021-08-19,2021-08-19,57,57,INDUCTION
NCT01797120,EX,NCT01797120-0095,5,PLACEBO,0,mg,TABLET,QD,ORAL,2021-06-24,2021-12-10,1,170,INDUCTION
NCT01797120,EX,NCT01797120-0096,1,FULVESTRANT,250,mg,SOLUTION,ONCE,INTRAMUSCULAR,2022-02-10,2022-02-10,1,1,INDUCTION
NCT01797120,EX,NCT01797120-0096,2,FULVESTRANT,250,mg,SOLUTION,ONCE,INTRAMUSCULAR,2022-02-24,2022-02-24,15,15,INDUCTION
NCT01797120,EX,NCT01797120-0096,3,FULVESTRANT,500,mg,SOLUTION,ONCE,INTRAMUSCULAR,2022-03-10,2022-03-10,29,29,INDUCTION
NCT01797120,EX,NCT01797120-0096,4,FULVESTRANT,500,mg,SOLUTION,ONCE,INTRAMUSCULAR,2022-04-07,2022-04-07,57,57,INDUCTION
NCT01797120,EX,NCT01797120-0096,5,FULVESTRANT,500,mg,SOLUTION,ONCE,INTRAMUSCULAR,2022-05-05,2022-05-05,85,85,INDUCTION
NCT01797120,EX,NCT01797120-0096,6,PLACEBO,0,mg,TABLET,QD,ORAL,2022-02-10,2022-10-21,1,254,INDUCTION
NCT01797120,EX,NCT01797120-0097,1,FULVESTRANT,250,mg,SOLUTION,ONCE,INTRAMUSCULAR,2021-07-21,2021-07-21,1,1,INDUCTION
NCT01797120,EX,NCT01797120-0097,2,FULVESTRANT,250,mg,SOLUTION,ONCE,INTRAMUSCULAR,2021-08-04,2021-08-04,15,15,INDUCTION
NCT01797120,EX,NCT01797120-0097,3,FULVESTRANT,500,mg,SOLUTION,ONCE,INTRAMUSCULAR,2021-08-18,2021-08-18,29,29,INDUCTION
NCT01797120,EX,NCT01797120-0097,4,FULVESTRANT,500,mg,SOLUTION,ONCE,INTRAMUSCULAR,2021-09-15,2021-09-15,57,57,INDUCTION
NCT01797120,EX,NCT01797120-0097,5,FULVESTRANT,500,mg,SOLUTION,ONCE,INTRAMUSCULAR,2021-10-13,2021-10-13,85,85,INDUCTION
NCT01797120,EX,NCT01797120-0097,19,PLACEBO,0,mg,TABLET,QD,ORAL,2021-07-21,2021-10-14,1,86,INDUCTION
NCT01797120,EX,NCT01797120-0098,1,FULVESTRANT,250,mg,SOLUTION,ONCE,INTRAMUSCULAR,2022-05-14,2022-05-14,1,1,INDUCTION
NCT01797120,EX,NCT01797120-0098,2,FULVESTRANT,250,mg,SOLUTION,ONCE,INTRAMUSCULAR,2022-05-28,2022-05-28,15,15,INDUCTION
NCT01797120,EX,NCT01797120-0098,3,FULVESTRANT,500,mg,SOLUTION,ONCE,INTRAMUSCULAR,2022-06-11,2022-06-11,29,29,INDUCTION
NCT01797120,EX,NCT01797120-0098,4,FULVESTRANT,500,mg,SOLUTION,ONCE,INTRAMUSCULAR,2022-07-09,2022-07-09,57,57,INDUCTION
NCT01797120,EX,NCT01797120-0098,5,FULVESTRANT,500,mg,SOLUTION,ONCE,INTRAMUSCULAR,2022-08-06,2022-08-06,85,85,INDUCTION
NCT01797120,EX,NCT01797120-0098,21,PLACEBO,0,mg,TABLET,QD,ORAL,2022-05-14,2022-08-07,1,86,INDUCTION
NCT01797120,EX,NCT01797120-0099,1,FULVESTRANT,250,mg,SOLUTION,ONCE,INTRAMUSCULAR,2022-04-26,2022-04-26,1,1,INDUCTION
NCT01797120,EX,NCT01797120-0099,2,FULVESTRANT,250,mg,SOLUTION,ONCE,INTRAMUSCULAR,2022-05-10,2022-05-10,15,15,INDUCTION
NCT01797120,EX,NCT01797120-0099,3,FULVESTRANT,500,mg,SOLUTION,ONCE,INTRAMUSCULAR,2022-05-24,2022-05-24,29,29,INDUCTION
NCT01797120,EX,NCT01797120-0099,4,FULVESTRANT,500,mg,SOLUTION,ONCE,INTRAMUSCULAR,2022-06-21,2022-06-21,57,57,INDUCTION
NCT01797120,EX,NCT01797120-0099,5,FULVESTRANT,500,mg,SOLUTION,ONCE,INTRAMUSCULAR,2022-07-19,2022-07-19,85,85,INDUCTION
NCT01797120,EX,NCT01797120-0099,6,FULVESTRANT,500,mg,SOLUTION,ONCE,INTRAMUSCULAR,2022-08-16,2022-08-16,113,113,INDUCTION
NCT01797120,EX,NCT01797120-0099,7,FULVESTRANT,500,mg,SOLUTION,ONCE,INTRAMUSCULAR,2022-09-13,2022-09-13,141,141,INDUCTION
NCT01797120,EX,NCT01797120-0099,8,FULVESTRANT,500,mg,SOLUTION,ONCE,INTRAMUSCULAR,2022-10-11,2022-10-11,169,169,INDUCTION
NCT01797120,EX,NCT01797120-0099,9,FULVESTRANT,500,mg,SOLUTION,ONCE,INTRAMUSCULAR,2022-11-08,2022-11-08,197,197,INDUCTION
NCT01797120,EX,NCT01797120-0099,10,FULVESTRANT,500,mg,SOLUTION,ONCE,INTRAMUSCULAR,2022-12-06,2022-12-06,225,225,INDUCTION
NCT01797120,EX,NCT01797120-0099,11,FULVESTRANT,500,mg,SOLUTION,ONCE,INTRAMUSCULAR,2023-01-03,2023-01-03,253,253,INDUCTION
NCT01797120,EX,NCT01797120-0099,12,EVEROLIMUS,10,mg,TABLET,QD,ORAL,2022-04-26,2023-01-07,1,257,INDUCTION
NCT01797120,EX,NCT01797120-0100,1,FULVESTRANT,250,mg,SOLUTION,ONCE,INTRAMUSCULAR,2021-11-26,2021-11-26,1,1,INDUCTION
NCT01797120,EX,NCT01797120-0100,2,FULVESTRANT,250,mg,SOLUTION,ONCE,INTRAMUSCULAR,2021-12-10,2021-12-10,15,15,INDUCTION
NCT01797120,EX,NCT01797120-0100,3,FULVESTRANT,500,mg,SOLUTION,ONCE,INTRAMUSCULAR,2021-12-24,2021-12-24,29,29,INDUCTION
NCT01797120,EX,NCT01797120-0100,4,FULVESTRANT,500,mg,SOLUTION,ONCE,INTRAMUSCULAR,2022-01-21,2022-01-21,57,57,INDUCTION
NCT01797120,EX,NCT01797120-0100,5,FULVESTRANT,500,mg,SOLUTION,ONCE,INTRAMUSCULAR,2022-02-18,2022-02-18,85,85,INDUCTION
NCT01797120,EX,NCT01797120-0100,9,PLACEBO,0,mg,TABLET,QD,ORAL,2021-11-26,2022-02-19,1,86,INDUCTION
NCT01797120,EX,NCT01797120-0101,1,FULVESTRANT,250,mg,SOLUTION,ONCE,INTRAMUSCULAR,2022-06-25,2022-06-25,1,1,INDUCTION
NCT01797120,EX,NCT01797120-0101,2,FULVESTRANT,250,mg,SOLUTION,ONCE,INTRAMUSCULAR,2022-07-09,2022-07-09,15,15,INDUCTION
NCT01797120,EX,NCT01797120-0101,3,FULVESTRANT,500,mg,SOLUTION,ONCE,INTRAMUSCULAR,2022-07-23,2022-07-23,29,29,INDUCTION
NCT01797120,EX,NCT01797120-0101,4,FULVESTRANT,500,mg,SOLUTION,ONCE,INTRAMUSCULAR,2022-08-20,2022-08-20,57,57,INDUCTION
NCT01797120,EX,NCT01797120-0101,5,FULVESTRANT,500,mg,SOLUTION,ONCE,INTRAMUSCULAR,2022-09-17,2022-09-17,85,85,INDUCTION
NCT01797120,EX,NCT01797120-0101,14,PLACEBO,0,mg,TABLET,QD,ORAL,2022-06-25,2022-09-18,1,86,INDUCTION
NCT01797120,EX,NCT01797120-0102,1,FULVESTRANT,250,mg,SOLUTION,ONCE,INTRAMUSCULAR,2021-07-29,2021-07-29,1,1,INDUCTION
NCT01797120,EX,NCT01797120-0102,2,FULVESTRANT,250,mg,SOLUTION,ONCE,INTRAMUSCULAR,2021-08-12,2021-08-12,15,15,INDUCTION
NCT01797120,EX,NCT01797120-0102,3,FULVESTRANT,500,mg,SOLUTION,ONCE,INTRAMUSCULAR,2021-08-26,2021-08-26,29,29,INDUCTION
NCT01797120,EX,NCT01797120-0102,4,FULVESTRANT,500,mg,SOLUTION,ONCE,INTRAMUSCULAR,2021-09-23,2021-09-23,57,57,INDUCTION
NCT01797120,EX,NCT01797120-0102,5,FULVESTRANT,500,mg,SOLUTION,ONCE,INTRAMUSCULAR,2021-10-21,2021-10-21,85,85,INDUCTION
NCT01797120,EX,NCT01797120-0102,6,FULVESTRANT,500,mg,SOLUTION,ONCE,INTRAMUSCULAR,2021-11-18,2021-11-18,113,113,INDUCTION
NCT01797120,EX,NCT01797120-0102,7,FULVESTRANT,500,mg,SOLUTION,ONCE,INTRAMUSCULAR,2021-12-16,2021-12-16,141,141,INDUCTION
NCT01797120,EX,NCT01797120-0102,8,PLACEBO,0,mg,TABLET,QD,ORAL,2021-07-29,2022-01-14,1,170,INDUCTION
NCT01797120,EX,NCT01797120-0103,1,FULVESTRANT,250,mg,SOLUTION,ONCE,INTRAMUSCULAR,2022-09-10,2022-09-10,1,1,INDUCTION
NCT01797120,EX,NCT01797120-0103,2,FULVESTRANT,250,mg,SOLUTION,ONCE,INTRAMUSCULAR,2022-09-24,2022-09-24,15,15,INDUCTION
NCT01797120,EX,NCT01797120-0103,3,FULVESTRANT,500,mg,SOLUTION,ONCE,INTRAMUSCULAR,2022-10-08,2022-10-08,29,29,INDUCTION
NCT01797120,EX,NCT01797120-0103,4,FULVESTRANT,500,mg,SOLUTION,ONCE,INTRAMUSCULAR,2022-11-05,2022-11-05,57,57,INDUCTION
NCT01797120,EX,NCT01797120-0103,5,FULVESTRANT,500,mg,SOLUTION,ONCE,INTRAMUSCULAR,2022-12-03,2022-12-03,85,85,INDUCTION
NCT01797120,EX,NCT01797120-0103,6,FULVESTRANT,500,mg,SOLUTION,ONCE,INTRAMUSCULAR,2022-12-31,2022-12-31,113,113,INDUCTION
NCT01797120,EX,NCT01797120-0103,7,FULVESTRANT,500,mg,SOLUTION,ONCE,INTRAMUSCULAR,2023-01-28,2023-01-28,141,141,INDUCTION
NCT01797120,EX,NCT01797120-0103,8,FULVESTRANT,500,mg,SOLUTION,ONCE,INTRAMUSCULAR,2023-02-25,2023-02-25,169,169,INDUCTION
NCT01797120,EX,NCT01797120-0103,9,FULVESTRANT,500,mg,SOLUTION,ONCE,INTRAMUSCULAR,2023-03-25,2023-03-25,197,197,INDUCTION
NCT01797120,EX,NCT01797120-0103,10,FULVESTRANT,500,mg,SOLUTION,ONCE,INTRAMUSCULAR,2023-04-22,2023-04-22,225,225,INDUCTION
NCT01797120,EX,NCT01797120-0103,11,FULVESTRANT,500,mg,SOLUTION,ONCE,INTRAMUSCULAR,2023-05-20,2023-05-20,253,253,INDUCTION
NCT01797120,EX,NCT01797120-0103,12,FULVESTRANT,500,mg,SOLUTION,ONCE,INTRAMUSCULAR,2023-06-17,2023-06-17,281,281,INDUCTION
NCT01797120,EX,NCT01797120-0103,13,FULVESTRANT,500,mg,SOLUTION,ONCE,INTRAMUSCULAR,2023-07-15,2023-07-15,309,309,INDUCTION
NCT01797120,EX,NCT01797120-0103,14,FULVESTRANT,500,mg,SOLUTION,ONCE,INTRAMUSCULAR,2023-08-12,2023-08-12,337,337,INDUCTION
NCT01797120,EX,NCT01797120-0103,15,FULVESTRANT,500,mg,SOLUTION,ONCE,INTRAMUSCULAR,2023-09-09,2023-09-09,365,365,CONTINUATION
NCT01797120,EX,NCT01797120-0103,16,FULVESTRANT,500,mg,SOLUTION,ONCE,INTRAMUSCULAR,2023-10-07,2023-10-07,393,393,CONTINUATION
NCT01797120,EX,NCT01797120-0103,17,EVEROLIMUS,10,mg,TABLET,QD,ORAL,2022-09-10,2023-10-08,1,394,INDUCTION
NCT01797120,EX,NCT01797120-0104,1,FULVESTRANT,250,mg,SOLUTION,ONCE,INTRAMUSCULAR,2022-07-30,2022-07-30,1,1,INDUCTION
NCT01797120,EX,NCT01797120-0104,2,FULVESTRANT,250,mg,SOLUTION,ONCE,INTRAMUSCULAR,2022-08-13,2022-08-13,15,15,INDUCTION
NCT01797120,EX,NCT01797120-0104,3,FULVESTRANT,500,mg,SOLUTION,ONCE,INTRAMUSCULAR,2022-08-27,2022-08-27,29,29,INDUCTION
NCT01797120,EX,NCT01797120-0104,4,FULVESTRANT,500,mg,SOLUTION,ONCE,INTRAMUSCULAR,2022-09-24,2022-09-24,57,57,INDUCTION
NCT01797120,EX,NCT01797120-0104,5,FULVESTRANT,500,mg,SOLUTION,ONCE,INTRAMUSCULAR,2022-10-22,2022-10-22,85,85,INDUCTION
NCT01797120,EX,NCT01797120-0104,6,FULVESTRANT,500,mg,SOLUTION,ONCE,INTRAMUSCULAR,2022-11-19,2022-11-19,113,113,INDUCTION
NCT01797120,EX,NCT01797120-0104,7,FULVESTRANT,500,mg,SOLUTION,ONCE,INTRAMUSCULAR,2022-12-17,2022-12-17,141,141,INDUCTION
NCT01797120,EX,NCT01797120-0104,8,FULVESTRANT,500,mg,SOLUTION,ONCE,INTRAMUSCULAR,2023-01-14,2023-01-14,169,169,INDUCTION
NCT01797120,EX,NCT01797120-0104,9,FULVESTRANT,500,mg,SOLUTION,ONCE,INTRAMUSCULAR,2023-02-11,2023-02-11,197,197,INDUCTION
NCT01797120,EX,NCT01797120-0104,10,FULVESTRANT,500,mg,SOLUTION,ONCE,INTRAMUSCULAR,2023-03-11,2023-03-11,225,225,INDUCTION
NCT01797120,EX,NCT01797120-0104,11,FULVESTRANT,500,mg,SOLUTION,ONCE,INTRAMUSCULAR,2023-04-08,2023-04-08,253,253,INDUCTION
NCT01797120,EX,NCT01797120-0104,19,EVEROLIMUS,10,mg,TABLET,QD,ORAL,2022-07-30,2023-04-09,1,254,INDUCTION
NCT01797120,EX,NCT01797120-0105,1,FULVESTRANT,250,mg,SOLUTION,ONCE,INTRAMUSCULAR,2021-01-17,2021-01-17,1,1,INDUCTION
NCT01797120,EX,NCT01797120-0105,2,FULVESTRANT,250,mg,SOLUTION,ONCE,INTRAMUSCULAR,2021-01-31,2021-01-31,15,15,INDUCTION
NCT01797120,EX,NCT01797120-0105,3,FULVESTRANT,500,mg,SOLUTION,ONCE,INTRAMUSCULAR,2021-02-14,2021-02-14,29,29,INDUCTION
NCT01797120,EX,NCT01797120-0105,4,FULVESTRANT,500,mg,SOLUTION,ONCE,INTRAMUSCULAR,2021-03-14,2021-03-14,57,57,INDUCTION
NCT01797120,EX,NCT01797120-0105,5,FULVESTRANT,500,mg,SOLUTION,ONCE,INTRAMUSCULAR,2021-04-11,2021-04-11,85,85,INDUCTION
NCT01797120,EX,NCT01797120-0105,6,FULVESTRANT,500,mg,SOLUTION,ONCE,INTRAMUSCULAR,2021-05-09,2021-05-09,113,113,INDUCTION
NCT01797120,EX,NCT01797120-0105,7,FULVESTRANT,500,mg,SOLUTION,ONCE,INTRAMUSCULAR,2021-06-06,2021-06-06,141,141,INDUCTION
NCT01797120,EX,NCT01797120-0105,8,FULVESTRANT,500,mg,SOLUTION,ONCE,INTRAMUSCULAR,2021-07-04,2021-07-04,169,169,INDUCTION
NCT01797120,EX,NCT01797120-0105,18,EVEROLIMUS,10,mg,TABLET,QD,ORAL,2021-01-17,2021-07-05,1,170,INDUCTION
NCT01797120,EX,NCT01797120-0106,1,FULVESTRANT,250,mg,SOLUTION,ONCE,INTRAMUSCULAR,2021-04-17,2021-04-17,1,1,INDUCTION
NCT01797120,EX,NCT01797120-0106,2,FULVESTRANT,250,mg,SOLUTION,ONCE,INTRAMUSCULAR,2021-05-01,2021-05-01,15,15,INDUCTION
NCT01797120,EX,NCT01797120-0106,3,FULVESTRANT,500,mg,SOLUTION,ONCE,INTRAMUSCULAR,2021-05-15,2021-05-15,29,29,INDUCTION
NCT01797120,EX,NCT01797120-0106,4,FULVESTRANT,500,mg,SOLUTION,ONCE,INTRAMUSCULAR,2021-06-12,2021-06-12,57,57,INDUCTION
NCT01797120,EX,NCT01797120-0106,5,FULVESTRANT,500,mg,SOLUTION,ONCE,INTRAMUSCULAR,2021-07-10,2021-07-10,85,85,INDUCTION
NCT01797120,EX,NCT01797120-0106,23,PLACEBO,0,mg,TABLET,QD,ORAL,2021-04-17,2021-07-11,1,86,INDUCTION
NCT01797120,EX,NCT01797120-0107,1,FULVESTRANT,250,mg,SOLUTION,ONCE,INTRAMUSCULAR,2021-06-14,2021-06-14,1,1,INDUCTION
NCT01797120,EX,NCT01797120-0107,2,FULVESTRANT,250,mg,SOLUTION,ONCE,INTRAMUSCULAR,2021-06-28,2021-06-28,15,15,INDUCTION
NCT01797120,EX,NCT01797120-0107,3,FULVESTRANT,500,mg,SOLUTION,ONCE,INTRAMUSCULAR,2021-07-12,2021-07-12,29,29,INDUCTION
NCT01797120,EX,NCT01797120-0107,4,FULVESTRANT,500,mg,SOLUTION,ONCE,INTRAMUSCULAR,2021-08-09,2021-08-09,57,57,INDUCTION
NCT01797120,EX,NCT01797120-0107,5,FULVESTRANT,500,mg,SOLUTION,ONCE,INTRAMUSCULAR,2021-09-06,2021-09-06,85,85,INDUCTION
NCT01797120,EX,NCT01797120-0107,6,FULVESTRANT,500,mg,SOLUTION,ONCE,INTRAMUSCULAR,2021-10-04,2021-10-04,113,113,INDUCTION
NCT01797120,EX,NCT01797120-0107,7,FULVESTRANT,500,mg,SOLUTION,ONCE,INTRAMUSCULAR,2021-11-01,2021-11-01,141,141,INDUCTION
NCT01797120,EX,NCT01797120-0107,8,FULVESTRANT,500,mg,SOLUTION,ONCE,INTRAMUSCULAR,2021-11-29,2021-11-29,169,169,INDUCTION
NCT01797120,EX,NCT01797120-0107,16,EVEROLIMUS,10,mg,TABLET,QD,ORAL,2021-06-14,2021-11-30,1,170,INDUCTION
NCT01797120,EX,NCT01797120-0108,1,FULVESTRANT,250,mg,SOLUTION,ONCE,INTRAMUSCULAR,2022-08-30,2022-08-30,1,1,INDUCTION
NCT01797120,EX,NCT01797120-0108,2,FULVESTRANT,250,mg,SOLUTION,ONCE,INTRAMUSCULAR,2022-09-13,2022-09-13,15,15,INDUCTION
NCT01797120,EX,NCT01797120-0108,3,FULVESTRANT,500,mg,SOLUTION,ONCE,INTRAMUSCULAR,2022-09-27,2022-09-27,29,29,INDUCTION
NCT01797120,EX,NCT01797120-0108,4,FULVESTRANT,500,mg,SOLUTION,ONCE,INTRAMUSCULAR,2022-10-25,2022-10-25,57,57,INDUCTION
NCT01797120,EX,NCT01797120-0108,5,FULVESTRANT,500,mg,SOLUTION,ONCE,INTRAMUSCULAR,2022-11-22,2022-11-22,85,85,INDUCTION
NCT01797120,EX,NCT01797120-0108,6,FULVESTRANT,500,mg,SOLUTION,ONCE,INTRAMUSCULAR,2022-12-20,2022-12-20,113,113,INDUCTION
NCT01797120,EX,NCT01797120-0108,7,FULVESTRANT,500,mg,SOLUTION,ONCE,INTRAMUSCULAR,2023-01-17,2023-01-17,141,141,INDUCTION
NCT01797120,EX,NCT01797120-0108,8,FULVESTRANT,500,mg,SOLUTION,ONCE,INTRAMUSCULAR,2023-02-14,2023-02-14,169,169,INDUCTION
NCT01797120,EX,NCT01797120-0108,16,EVEROLIMUS,10,mg,TABLET,QD,ORAL,2022-08-30,2023-02-15,1,170,INDUCTION
NCT01797120,EX,NCT01797120-0109,1,FULVESTRANT,250,mg,SOLUTION,ONCE,INTRAMUSCULAR,2022-06-21,2022-06-21,1,1,INDUCTION
NCT01797120,EX,NCT01797120-0109,2,FULVESTRANT,250,mg,SOLUTION,ONCE,INTRAMUSCULAR,2022-07-05,2022-07-05,15,15,INDUCTION
NCT01797120,EX,NCT01797120-0109,3,FULVESTRANT,500,mg,SOLUTION,ONCE,INTRAMUSCULAR,2022-07-19,2022-07-19,29,29,INDUCTION
NCT01797120,EX,NCT01797120-0109,4,FULVESTRANT,500,mg,SOLUTION,ONCE,INTRAMUSCULAR,2022-08-16,2022-08-16,57,57,INDUCTION
NCT01797120,EX,NCT01797120-0109,5,FULVESTRANT,500,mg,SOLUTION,ONCE,INTRAMUSCULAR,2022-09-13,2022-09-13,85,85,INDUCTION
NCT01797120,EX,NCT01797120-0109,19,PLACEBO,0,mg,TABLET,QD,ORAL,2022-06-21,2022-09-14,1,86,INDUCTION
NCT01797120,EX,NCT01797120-0110,1,FULVESTRANT,250,mg,SOLUTION,ONCE,INTRAMUSCULAR,2022-09-21,2022-09-21,1,1,INDUCTION
NCT01797120,EX,NCT01797120-0110,2,FULVESTRANT,250,mg,SOLUTION,ONCE,INTRAMUSCULAR,2022-10-05,2022-10-05,15,15,INDUCTION
NCT01797120,EX,NCT01797120-0110,3,FULVESTRANT,500,mg,SOLUTION,ONCE,INTRAMUSCULAR,2022-10-19,2022-10-19,29,29,INDUCTION
NCT01797120,EX,NCT01797120-0110,4,FULVESTRANT,500,mg,SOLUTION,ONCE,INTRAMUSCULAR,2022-11-16,2022-11-16,57,57,INDUCTION
NCT01797120,EX,NCT01797120-0110,5,FULVESTRANT,500,mg,SOLUTION,ONCE,INTRAMUSCULAR,2022-12-14,2022-12-14,85,85,INDUCTION
NCT01797120,EX,NCT01797120-0110,6,FULVESTRANT,500,mg,SOLUTION,ONCE,INTRAMUSCULAR,2023-01-11,2023-01-11,113,113,INDUCTION
NCT01797120,EX,NCT01797120-0110,7,FULVESTRANT,500,mg,SOLUTION,ONCE,INTRAMUSCULAR,2023-02-08,2023-02-08,141,141,INDUCTION
NCT01797120,EX,NCT01797120-0110,8,FULVESTRANT,500,mg,SOLUTION,ONCE,INTRAMUSCULAR,2023-03-08,2023-03-08,169,169,INDUCTION
NCT01797120,EX,NCT01797120-0110,9,FULVESTRANT,500,mg,SOLUTION,ONCE,INTRAMUSCULAR,2023-04-05,2023-04-05,197,197,INDUCTION
NCT01797120,EX,NCT01797120-0110,10,FULVESTRANT,500,mg,SOLUTION,ONCE,INTRAMUSCULAR,2023-05-03,2023-05-03,225,225,INDUCTION
NCT01797120,EX,NCT01797120-0110,11,FULVESTRANT,500,mg,SOLUTION,ONCE,INTRAMUSCULAR,2023-05-31,2023-05-31,253,253,INDUCTION
NCT01797120,EX,NCT01797120-0110,12,FULVESTRANT,500,mg,SOLUTION,ONCE,INTRAMUSCULAR,2023-06-28,2023-06-28,281,281,INDUCTION
NCT01797120,EX,NCT01797120-0110,13,FULVESTRANT,500,mg,SOLUTION,ONCE,INTRAMUSCULAR,2023-07-26,2023-07-26,309,309,INDUCTION
NCT01797120,EX,NCT01797120-0110,14,FULVESTRANT,500,mg,SOLUTION,ONCE,INTRAMUSCULAR,2023-08-23,2023-08-23,337,337,INDUCTION
NCT01797120,EX,NCT01797120-0110,19,EVEROLIMUS,10,mg,TABLET,QD,ORAL,2022-09-21,2023-08-24,1,338,INDUCTION
NCT01797120,EX,NCT01797120-0111,1,FULVESTRANT,250,mg,SOLUTION,ONCE,INTRAMUSCULAR,2021-07-11,2021-07-11,1,1,INDUCTION
NCT01797120,EX,NCT01797120-0111,2,FULVESTRANT,250,mg,SOLUTION,ONCE,INTRAMUSCULAR,2021-07-25,2021-07-25,15,15,INDUCTION
NCT01797120,EX,NCT01797120-0111,3,FULVESTRANT,500,mg,SOLUTION,ONCE,INTRAMUSCULAR,2021-08-08,2021-08-08,29,29,INDUCTION
NCT01797120,EX,NCT01797120-0111,4,FULVESTRANT,500,mg,SOLUTION,ONCE,INTRAMUSCULAR,2021-09-05,2021-09-05,57,57,INDUCTION
NCT01797120,EX,NCT01797120-0111,5,FULVESTRANT,500,mg,SOLUTION,ONCE,INTRAMUSCULAR,2021-10-03,2021-10-03,85,85,INDUCTION
NCT01797120,EX,NCT01797120-0111,10,EVEROLIMUS,10,mg,TABLET,QD,ORAL,2021-07-11,2021-10-04,1,86,INDUCTION
NCT01797120,EX,NCT01797120-0112,1,FULVESTRANT,250,mg,SOLUTION,ONCE,INTRAMUSCULAR,2021-07-15,2021-07-15,1,1,INDUCTION
NCT01797120,EX,NCT01797120-0112,2,FULVESTRANT,250,mg,SOLUTION,ONCE,INTRAMUSCULAR,2021-07-29,2021-07-29,15,15,INDUCTION
NCT01797120,EX,NCT01797120-0112,3,FULVESTRANT,500,mg,SOLUTION,ONCE,INTRAMUSCULAR,2021-08-12,2021-08-12,29,29,INDUCTION
NCT01797120,EX,NCT01797120-0112,4,FULVESTRANT,500,mg,SOLUTION,ONCE,INTRAMUSCULAR,2021-09-09,2021-09-09,57,57,INDUCTION
NCT01797120,EX,NCT01797120-0112,5,FULVESTRANT,500,mg,SOLUTION,ONCE,INTRAMUSCULAR,2021-10-07,2021-10-07,85,85,INDUCTION
NCT01797120,EX,NCT01797120-0112,6,FULVESTRANT,500,mg,SOLUTION,ONCE,INTRAMUSCULAR,2021-11-04,2021-11-04,113,113,INDUCTION
NCT01797120,EX,NCT01797120-0112,7,FULVESTRANT,500,mg,SOLUTION,ONCE,INTRAMUSCULAR,2021-12-02,2021-12-02,141,141,INDUCTION
NCT01797120,EX,NCT01797120-0112,8,FULVESTRANT,500,mg,SOLUTION,ONCE,INTRAMUSCULAR,2021-12-30,2021-12-30,169,169,INDUCTION
NCT01797120,EX,NCT01797120-0112,9,FULVESTRANT,500,mg,SOLUTION,ONCE,INTRAMUSCULAR,2022-01-27,2022-01-27,197,197,INDUCTION
NCT01797120,EX,NCT01797120-0112,10,FULVESTRANT,500,mg,SOLUTION,ONCE,INTRAMUSCULAR,2022-02-24,2022-02-24,225,225,INDUCTION
NCT01797120,EX,NCT01797120-0112,11,FULVESTRANT,500,mg,SOLUTION,ONCE,INTRAMUSCULAR,2022-03-24,2022-03-24,253,253,INDUCTION
NCT01797120,EX,NCT01797120-0112,12,FULVESTRANT,500,mg,SOLUTION,ONCE,INTRAMUSCULAR,2022-04-21,2022-04-21,281,281,INDUCTION
NCT01797120,EX,NCT01797120-0112,13,FULVESTRANT,500,mg,SOLUTION,ONCE,INTRAMUSCULAR,2022-05-19,2022-05-19,309,309,INDUCTION
NCT01797120,EX,NCT01797120-0112,14,FULVESTRANT,500,mg,SOLUTION,ONCE,INTRAMUSCULAR,2022-06-16,2022-06-16,337,337,INDUCTION
NCT01797120,EX,NCT01797120-0112,20,EVEROLIMUS,10,mg,TABLET,QD,ORAL,2021-07-15,2022-06-17,1,338,INDUCTION
NCT01797120,EX,NCT01797120-0113,1,FULVESTRANT,250,mg,SOLUTION,ONCE,INTRAMUSCULAR,2021-11-04,2021-11-04,1,1,INDUCTION
NCT01797120,EX,NCT01797120-0113,2,FULVESTRANT,250,mg,SOLUTION,ONCE,INTRAMUSCULAR,2021-11-18,2021-11-18,15,15,INDUCTION
NCT01797120,EX,NCT01797120-0113,3,FULVESTRANT,500,mg,SOLUTION,ONCE,INTRAMUSCULAR,2021-12-02,2021-12-02,29,29,INDUCTION
NCT01797120,EX,NCT01797120-0113,4,FULVESTRANT,500,mg,SOLUTION,ONCE,INTRAMUSCULAR,2021-12-30,2021-12-30,57,57,INDUCTION
NCT01797120,EX,NCT01797120-0113,5,FULVESTRANT,500,mg,SOLUTION,ONCE,INTRAMUSCULAR,2022-01-27,2022-01-27,85,85,INDUCTION
NCT01797120,EX,NCT01797120-0113,22,EVEROLIMUS,10,mg,TABLET,QD,ORAL,2021-11-04,2022-01-28,1,86,INDUCTION
NCT01797120,EX,NCT01797120-0114,1,FULVESTRANT,250,mg,SOLUTION,ONCE,INTRAMUSCULAR,2021-05-17,2021-05-17,1,1,INDUCTION
NCT01797120,EX,NCT01797120-0114,2,FULVESTRANT,250,mg,SOLUTION,ONCE,INTRAMUSCULAR,2021-05-31,2021-05-31,15,15,INDUCTION
NCT01797120,EX,NCT01797120-0114,3,FULVESTRANT,500,mg,SOLUTION,ONCE,INTRAMUSCULAR,2021-06-14,2021-06-14,29,29,INDUCTION
NCT01797120,EX,NCT01797120-0114,4,FULVESTRANT,500,mg,SOLUTION,ONCE,INTRAMUSCULAR,2021-07-12,2021-07-12,57,57,INDUCTION
NCT01797120,EX,NCT01797120-0114,5,FULVESTRANT,500,mg,SOLUTION,ONCE,INTRAMUSCULAR,2021-08-09,2021-08-09,85,85,INDUCTION
NCT01797120,EX,NCT01797120-0114,6,FULVESTRANT,500,mg,SOLUTION,ONCE,INTRAMUSCULAR,2021-09-06,2021-09-06,113,113,INDUCTION
NCT01797120,EX,NCT01797120-0114,7,FULVESTRANT,500,mg,SOLUTION,ONCE,INTRAMUSCULAR,2021-10-04,2021-10-04,141,141,INDUCTION
NCT01797120,EX,NCT01797120-0114,8,FULVESTRANT,500,mg,SOLUTION,ONCE,INTRAMUSCULAR,2021-11-01,2021-11-01,169,169,INDUCTION
NCT01797120,EX,NCT01797120-0114,20,EVEROLIMUS,10,mg,TABLET,QD,ORAL,2021-05-17,2021-11-02,1,170,INDUCTION
NCT01797120,EX,NCT01797120-0115,1,FULVESTRANT,250,mg,SOLUTION,ONCE,INTRAMUSCULAR,2021-04-04,2021-04-04,1,1,INDUCTION
NCT01797120,EX,NCT01797120-0115,2,FULVESTRANT,250,mg,SOLUTION,ONCE,INTRAMUSCULAR,2021-04-18,2021-04-18,15,15,INDUCTION
NCT01797120,EX,NCT01797120-0115,3,FULVESTRANT,500,mg,SOLUTION,ONCE,INTRAMUSCULAR,2021-05-02,2021-05-02,29,29,INDUCTION
NCT01797120,EX,NCT01797120-0115,4,FULVESTRANT,500,mg,SOLUTION,ONCE,INTRAMUSCULAR,2021-05-30,2021-05-30,57,57,INDUCTION
NCT01797120,EX,NCT01797120-0115,5,FULVESTRANT,500,mg,SOLUTION,ONCE,INTRAMUSCULAR,2021-06-27,2021-06-27,85,85,INDUCTION
NCT01797120,EX,NCT01797120-0115,6,FULVESTRANT,500,mg,SOLUTION,ONCE,INTRAMUSCULAR,2021-07-25,2021-07-25,113,113,INDUCTION
NCT01797120,EX,NCT01797120-0115,7,FULVESTRANT,500,mg,SOLUTION,ONCE,INTRAMUSCULAR,2021-08-22,2021-08-22,141,141,INDUCTION
NCT01797120,EX,NCT01797120-0115,8,FULVESTRANT,500,mg,SOLUTION,ONCE,INTRAMUSCULAR,2021-09-19,2021-09-19,169,169,INDUCTION
NCT01797120,EX,NCT01797120-0115,9,FULVESTRANT,500,mg,SOLUTION,ONCE,INTRAMUSCULAR,2021-10-17,2021-10-17,197,197,INDUCTION
NCT01797120,EX,NCT01797120-0115,10,FULVESTRANT,500,mg,SOLUTION,ONCE,INTRAMUSCULAR,2021-11-14,2021-11-14,225,225,INDUCTION
NCT01797120,EX,NCT01797120-0115,11,FULVESTRANT,500,mg,SOLUTION,ONCE,INTRAMUSCULAR,2021-12-12,2021-12-12,253,253,INDUCTION
NCT01797120,EX,NCT01797120-0115,12,FULVESTRANT,500,mg,SOLUTION,ONCE,INTRAMUSCULAR,2022-01-09,2022-01-09,281,281,INDUCTION
NCT01797120,EX,NCT01797120-0115,13,FULVESTRANT,500,mg,SOLUTION,ONCE,INTRAMUSCULAR,2022-02-06,2022-02-06,309,309,INDUCTION
NCT01797120,EX,NCT01797120-0115,14,FULVESTRANT,500,mg,SOLUTION,ONCE,INTRAMUSCULAR,2022-03-06,2022-03-06,337,337,INDUCTION
NCT01797120,EX,NCT01797120-0115,15,FULVESTRANT,500,mg,SOLUTION,ONCE,INTRAMUSCULAR,2022-04-03,2022-04-03,365,365,CONTINUATION
NCT01797120,EX,NCT01797120-0115,16,FULVESTRANT,500,mg,SOLUTION,ONCE,INTRAMUSCULAR,2022-05-01,2022-05-01,393,393,CONTINUATION
NCT01797120,EX,NCT01797120-0115,17,FULVESTRANT,500,mg,SOLUTION,ONCE,INTRAMUSCULAR,2022-05-29,2022-05-29,421,421,CONTINUATION
NCT01797120,EX,NCT01797120-0115,18,FULVESTRANT,500,mg,SOLUTION,ONCE,INTRAMUSCULAR,2022-06-26,2022-06-26,449,449,CONTINUATION
NCT01797120,EX,NCT01797120-0115,19,FULVESTRANT,500,mg,SOLUTION,ONCE,INTRAMUSCULAR,2022-07-24,2022-07-24,477,477,CONTINUATION
NCT01797120,EX,NCT01797120-0115,20,FULVESTRANT,500,mg,SOLUTION,ONCE,INTRAMUSCULAR,2022-08-21,2022-08-21,505,505,CONTINUATION
NCT01797120,EX,NCT01797120-0115,21,EVEROLIMUS,10,mg,TABLET,QD,ORAL,2021-04-04,2024-09-16,1,1262,INDUCTION
NCT01797120,EX,NCT01797120-0116,1,FULVESTRANT,250,mg,SOLUTION,ONCE,INTRAMUSCULAR,2021-03-29,2021-03-29,1,1,INDUCTION
NCT01797120,EX,NCT01797120-0116,2,FULVESTRANT,250,mg,SOLUTION,ONCE,INTRAMUSCULAR,2021-04-12,2021-04-12,15,15,INDUCTION
NCT01797120,EX,NCT01797120-0116,3,FULVESTRANT,500,mg,SOLUTION,ONCE,INTRAMUSCULAR,2021-04-26,2021-04-26,29,29,INDUCTION
NCT01797120,EX,NCT01797120-0116,4,FULVESTRANT,500,mg,SOLUTION,ONCE,INTRAMUSCULAR,2021-05-24,2021-05-24,57,57,INDUCTION
NCT01797120,EX,NCT01797120-0116,5,FULVESTRANT,500,mg,SOLUTION,ONCE,INTRAMUSCULAR,2021-06-21,2021-06-21,85,85,INDUCTION
NCT01797120,EX,NCT01797120-0116,6,FULVESTRANT,500,mg,SOLUTION,ONCE,INTRAMUSCULAR,2021-07-19,2021-07-19,113,113,INDUCTION
NCT01797120,EX,NCT01797120-0116,7,FULVESTRANT,500,mg,SOLUTION,ONCE,INTRAMUSCULAR,2021-08-16,2021-08-16,141,141,INDUCTION
NCT01797120,EX,NCT01797120-0116,8,FULVESTRANT,500,mg,SOLUTION,ONCE,INTRAMUSCULAR,2021-09-13,2021-09-13,169,169,INDUCTION
NCT01797120,EX,NCT01797120-0116,21,PLACEBO,0,mg,TABLET,QD,ORAL,2021-03-29,2021-09-14,1,170,INDUCTION
NCT01797120,EX,NCT01797120-0117,1,FULVESTRANT,250,mg,SOLUTION,ONCE,INTRAMUSCULAR,2021-06-10,2021-06-10,1,1,INDUCTION
NCT01797120,EX,NCT01797120-0117,2,FULVESTRANT,250,mg,SOLUTION,ONCE,INTRAMUSCULAR,2021-06-24,2021-06-24,15,15,INDUCTION
NCT01797120,EX,NCT01797120-0117,3,FULVESTRANT,500,mg,SOLUTION,ONCE,INTRAMUSCULAR,2021-07-08,2021-07-08,29,29,INDUCTION
NCT01797120,EX,NCT01797120-0117,4,FULVESTRANT,500,mg,SOLUTION,ONCE,INTRAMUSCULAR,2021-08-05,2021-08-05,57,57,INDUCTION
NCT01797120,EX,NCT01797120-0117,5,FULVESTRANT,500,mg,SOLUTION,ONCE,INTRAMUSCULAR,2021-09-02,2021-09-02,85,85,INDUCTION
NCT01797120,EX,NCT01797120-0117,6,FULVESTRANT,500,mg,SOLUTION,ONCE,INTRAMUSCULAR,2021-09-30,2021-09-30,113,113,INDUCTION
NCT01797120,EX,NCT01797120-0117,7,FULVESTRANT,500,mg,SOLUTION,ONCE,INTRAMUSCULAR,2021-10-28,2021-10-28,141,141,INDUCTION
NCT01797120,EX,NCT01797120-0117,8,FULVESTRANT,500,mg,SOLUTION,ONCE,INTRAMUSCULAR,2021-11-25,2021-11-25,169,169,INDUCTION
NCT01797120,EX,NCT01797120-0117,9,EVEROLIMUS,10,mg,TABLET,QD,ORAL,2021-06-10,2022-10-28,1,506,INDUCTION
NCT01797120,EX,NCT01797120-0118,1,FULVESTRANT,250,mg,SOLUTION,ONCE,INTRAMUSCULAR,2021-05-28,2021-05-28,1,1,INDUCTION
NCT01797120,EX,NCT01797120-0118,2,FULVESTRANT,250,mg,SOLUTION,ONCE,INTRAMUSCULAR,2021-06-11,2021-06-11,15,15,INDUCTION
NCT01797120,EX,NCT01797120-0118,3,FULVESTRANT,500,mg,SOLUTION,ONCE,INTRAMUSCULAR,2021-06-25,2021-06-25,29,29,INDUCTION
NCT01797120,EX,NCT01797120-0118,4,FULVESTRANT,500,mg,SOLUTION,ONCE,INTRAMUSCULAR,2021-07-23,2021-07-23,57,57,INDUCTION
NCT01797120,EX,NCT01797120-0118,5,FULVESTRANT,500,mg,SOLUTION,ONCE,INTRAMUSCULAR,2021-08-20,2021-08-20,85,85,INDUCTION
NCT01797120,EX,NCT01797120-0118,6,FULVESTRANT,500,mg,SOLUTION,ONCE,INTRAMUSCULAR,2021-09-17,2021-09-17,113,113,INDUCTION
NCT01797120,EX,NCT01797120-0118,7,FULVESTRANT,500,mg,SOLUTION,ONCE,INTRAMUSCULAR,2021-10-15,2021-10-15,141,141,INDUCTION
NCT01797120,EX,NCT01797120-0118,8,FULVESTRANT,500,mg,SOLUTION,ONCE,INTRAMUSCULAR,2021-11-12,2021-11-12,169,169,INDUCTION
NCT01797120,EX,NCT01797120-0118,21,PLACEBO,0,mg,TABLET,QD,ORAL,2021-05-28,2021-11-13,1,170,INDUCTION
NCT01797120,EX,NCT01797120-0119,1,FULVESTRANT,250,mg,SOLUTION,ONCE,INTRAMUSCULAR,2022-08-08,2022-08-08,1,1,INDUCTION
NCT01797120,EX,NCT01797120-0119,2,FULVESTRANT,250,mg,SOLUTION,ONCE,INTRAMUSCULAR,2022-08-22,2022-08-22,15,15,INDUCTION
NCT01797120,EX,NCT01797120-0119,3,FULVESTRANT,500,mg,SOLUTION,ONCE,INTRAMUSCULAR,2022-09-05,2022-09-05,29,29,INDUCTION
NCT01797120,EX,NCT01797120-0119,4,FULVESTRANT,500,mg,SOLUTION,ONCE,INTRAMUSCULAR,2022-10-03,2022-10-03,57,57,INDUCTION
NCT01797120,EX,NCT01797120-0119,5,FULVESTRANT,500,mg,SOLUTION,ONCE,INTRAMUSCULAR,2022-10-31,2022-10-31,85,85,INDUCTION
NCT01797120,EX,NCT01797120-0119,19,PLACEBO,0,mg,TABLET,QD,ORAL,2022-08-08,2022-11-01,1,86,INDUCTION
NCT01797120,EX,NCT01797120-0120,1,FULVESTRANT,250,mg,SOLUTION,ONCE,INTRAMUSCULAR,2022-04-01,2022-04-01,1,1,INDUCTION
NCT01797120,EX,NCT01797120-0120,2,FULVESTRANT,250,mg,SOLUTION,ONCE,INTRAMUSCULAR,2022-04-15,2022-04-15,15,15,INDUCTION
NCT01797120,EX,NCT01797120-0120,3,FULVESTRANT,500,mg,SOLUTION,ONCE,INTRAMUSCULAR,2022-04-29,2022-04-29,29,29,INDUCTION
NCT01797120,EX,NCT01797120-0120,4,FULVESTRANT,500,mg,SOLUTION,ONCE,INTRAMUSCULAR,2022-05-27,2022-05-27,57,57,INDUCTION
NCT01797120,EX,NCT01797120-0120,5,FULVESTRANT,500,mg,SOLUTION,ONCE,INTRAMUSCULAR,2022-06-24,2022-06-24,85,85,INDUCTION
NCT01797120,EX,NCT01797120-0120,11,EVEROLIMUS,10,mg,TABLET,QD,ORAL,2022-04-01,2022-06-25,1,86,INDUCTION
NCT01797120,EX,NCT01797120-0121,1,FULVESTRANT,250,mg,SOLUTION,ONCE,INTRAMUSCULAR,2021-03-29,2021-03-29,1,1,INDUCTION
NCT01797120,EX,NCT01797120-0121,2,FULVESTRANT,250,mg,SOLUTION,ONCE,INTRAMUSCULAR,2021-04-12,2021-04-12,15,15,INDUCTION
NCT01797120,EX,NCT01797120-0121,3,FULVESTRANT,500,mg,SOLUTION,ONCE,INTRAMUSCULAR,2021-04-26,2021-04-26,29,29,INDUCTION
NCT01797120,EX,NCT01797120-0121,4,FULVESTRANT,500,mg,SOLUTION,ONCE,INTRAMUSCULAR,2021-05-24,2021-05-24,57,57,INDUCTION
NCT01797120,EX,NCT01797120-0121,5,FULVESTRANT,500,mg,SOLUTION,ONCE,INTRAMUSCULAR,2021-06-21,2021-06-21,85,85,INDUCTION
NCT01797120,EX,NCT01797120-0121,6,FULVESTRANT,500,mg,SOLUTION,ONCE,INTRAMUSCULAR,2021-07-19,2021-07-19,113,113,INDUCTION
NCT01797120,EX,NCT01797120-0121,7,FULVESTRANT,500,mg,SOLUTION,ONCE,INTRAMUSCULAR,2021-08-16,2021-08-16,141,141,INDUCTION
NCT01797120,EX,NCT01797120-0121,8,FULVESTRANT,500,mg,SOLUTION,ONCE,INTRAMUSCULAR,2021-09-13,2021-09-13,169,169,INDUCTION
NCT01797120,EX,NCT01797120-0121,9,FULVESTRANT,500,mg,SOLUTION,ONCE,INTRAMUSCULAR,2021-10-11,2021-10-11,197,197,INDUCTION
NCT01797120,EX,NCT01797120-0121,10,FULVESTRANT,500,mg,SOLUTION,ONCE,INTRAMUSCULAR,2021-11-08,2021-11-08,225,225,INDUCTION
NCT01797120,EX,NCT01797120-0121,11,FULVESTRANT,500,mg,SOLUTION,ONCE,INTRAMUSCULAR,2021-12-06,2021-12-06,253,253,INDUCTION
NCT01797120,EX,NCT01797120-0121,12,FULVESTRANT,500,mg,SOLUTION,ONCE,INTRAMUSCULAR,2022-01-03,2022-01-03,281,281,INDUCTION
NCT01797120,EX,NCT01797120-0121,13,FULVESTRANT,500,mg,SOLUTION,ONCE,INTRAMUSCULAR,2022-01-31,2022-01-31,309,309,INDUCTION
NCT01797120,EX,NCT01797120-0121,14,FULVESTRANT,500,mg,SOLUTION,ONCE,INTRAMUSCULAR,2022-02-28,2022-02-28,337,337,INDUCTION
NCT01797120,EX,NCT01797120-0121,15,FULVESTRANT,500,mg,SOLUTION,ONCE,INTRAMUSCULAR,2022-03-28,2022-03-28,365,365,CONTINUATION
NCT01797120,EX,NCT01797120-0121,16,FULVESTRANT,500,mg,SOLUTION,ONCE,INTRAMUSCULAR,2022-04-25,2022-04-25,393,393,CONTINUATION
NCT01797120,EX,NCT01797120-0121,17,FULVESTRANT,500,mg,SOLUTION,ONCE,INTRAMUSCULAR,2022-05-23,2022-05-23,421,421,CONTINUATION
NCT01797120,EX,NCT01797120-0121,18,EVEROLIMUS,10,mg,TABLET,QD,ORAL,2021-03-29,2022-11-08,1,590,INDUCTION
NCT01797120,EX,NCT01797120-0122,1,FULVESTRANT,250,mg,SOLUTION,ONCE,INTRAMUSCULAR,2021-01-14,2021-01-14,1,1,INDUCTION
NCT01797120,EX,NCT01797120-0122,2,FULVESTRANT,250,mg,SOLUTION,ONCE,INTRAMUSCULAR,2021-01-28,2021-01-28,15,15,INDUCTION
NCT01797120,EX,NCT01797120-0122,3,FULVESTRANT,500,mg,SOLUTION,ONCE,INTRAMUSCULAR,2021-02-11,2021-02-11,29,29,INDUCTION
NCT01797120,EX,NCT01797120-0122,4,FULVESTRANT,500,mg,SOLUTION,ONCE,INTRAMUSCULAR,2021-03-11,2021-03-11,57,57,INDUCTION
NCT01797120,EX,NCT01797120-0122,5,FULVESTRANT,500,mg,SOLUTION,ONCE,INTRAMUSCULAR,2021-04-08,2021-04-08,85,85,INDUCTION
NCT01797120,EX,NCT01797120-0122,18,EVEROLIMUS,10,mg,TABLET,QD,ORAL,2021-01-14,2021-04-09,1,86,INDUCTION
NCT01797120,EX,NCT01797120-0123,1,FULVESTRANT,250,mg,SOLUTION,ONCE,INTRAMUSCULAR,2021-11-11,2021-11-11,1,1,INDUCTION
NCT01797120,EX,NCT01797120-0123,2,FULVESTRANT,250,mg,SOLUTION,ONCE,INTRAMUSCULAR,2021-11-25,2021-11-25,15,15,INDUCTION
NCT01797120,EX,NCT01797120-0123,3,FULVESTRANT,500,mg,SOLUTION,ONCE,INTRAMUSCULAR,2021-12-09,2021-12-09,29,29,INDUCTION
NCT01797120,EX,NCT01797120-0123,4,FULVESTRANT,500,mg,SOLUTION,ONCE,INTRAMUSCULAR,2022-01-06,2022-01-06,57,57,INDUCTION
NCT01797120,EX,NCT01797120-0123,5,FULVESTRANT,500,mg,SOLUTION,ONCE,INTRAMUSCULAR,2022-02-03,2022-02-03,85,85,INDUCTION
NCT01797120,EX,NCT01797120-0123,6,FULVESTRANT,500,mg,SOLUTION,ONCE,INTRAMUSCULAR,2022-03-03,2022-03-03,113,113,INDUCTION
NCT01797120,EX,NCT01797120-0123,7,FULVESTRANT,500,mg,SOLUTION,ONCE,INTRAMUSCULAR,2022-03-31,2022-03-31,141,141,INDUCTION
NCT01797120,EX,NCT01797120-0123,8,FULVESTRANT,500,mg,SOLUTION,ONCE,INTRAMUSCULAR,2022-04-28,2022-04-28,169,169,INDUCTION
NCT01797120,EX,NCT01797120-0123,20,PLACEBO,0,mg,TABLET,QD,ORAL,2021-11-11,2022-04-29,1,170,INDUCTION
NCT01797120,EX,NCT01797120-0124,1,FULVESTRANT,250,mg,SOLUTION,ONCE,INTRAMUSCULAR,2022-08-17,2022-08-17,1,1,INDUCTION
NCT01797120,EX,NCT01797120-0124,2,FULVESTRANT,250,mg,SOLUTION,ONCE,INTRAMUSCULAR,2022-08-31,2022-08-31,15,15,INDUCTION
NCT01797120,EX,NCT01797120-0124,3,FULVESTRANT,500,mg,SOLUTION,ONCE,INTRAMUSCULAR,2022-09-14,2022-09-14,29,29,INDUCTION
NCT01797120,EX,NCT01797120-0124,4,FULVESTRANT,500,mg,SOLUTION,ONCE,INTRAMUSCULAR,2022-10-12,2022-10-12,57,57,INDUCTION
NCT01797120,EX,NCT01797120-0124,5,EVEROLIMUS,10,mg,TABLET,QD,ORAL,2022-08-17,2023-07-20,1,338,INDUCTION
NCT01797120,EX,NCT01797120-0125,1,FULVESTRANT,250,mg,SOLUTION,ONCE,INTRAMUSCULAR,2021-05-01,2021-05-01,1,1,INDUCTION
NCT01797120,EX,NCT01797120-0125,2,FULVESTRANT,250,mg,SOLUTION,ONCE,INTRAMUSCULAR,2021-05-15,2021-05-15,15,15,INDUCTION
NCT01797120,EX,NCT01797120-0125,3,FULVESTRANT,500,mg,SOLUTION,ONCE,INTRAMUSCULAR,2021-05-29,2021-05-29,29,29,INDUCTION
NCT01797120,EX,NCT01797120-0125,4,FULVESTRANT,500,mg,SOLUTION,ONCE,INTRAMUSCULAR,2021-06-26,2021-06-26,57,57,INDUCTION
NCT01797120,EX,NCT01797120-0125,5,FULVESTRANT,500,mg,SOLUTION,ONCE,INTRAMUSCULAR,2021-07-24,2021-07-24,85,85,INDUCTION
NCT01797120,EX,NCT01797120-0125,17,PLACEBO,0,mg,TABLET,QD,ORAL,2021-05-01,2021-07-25,1,86,INDUCTION
NCT01797120,EX,NCT01797120-0126,1,FULVESTRANT,250,mg,SOLUTION,ONCE,INTRAMUSCULAR,2022-12-17,2022-12-17,1,1,INDUCTION
NCT01797120,EX,NCT01797120-0126,2,FULVESTRANT,250,mg,SOLUTION,ONCE,INTRAMUSCULAR,2022-12-31,2022-12-31,15,15,INDUCTION
NCT01797120,EX,NCT01797120-0126,3,FULVESTRANT,500,mg,SOLUTION,ONCE,INTRAMUSCULAR,2023-01-14,2023-01-14,29,29,INDUCTION
NCT01797120,EX,NCT01797120-0126,4,FULVESTRANT,500,mg,SOLUTION,ONCE,INTRAMUSCULAR,2023-02-11,2023-02-11,57,57,INDUCTION
NCT01797120,EX,NCT01797120-0126,5,FULVESTRANT,500,mg,SOLUTION,ONCE,INTRAMUSCULAR,2023-03-11,2023-03-11,85,85,INDUCTION
NCT01797120,EX,NCT01797120-0126,6,FULVESTRANT,500,mg,SOLUTION,ONCE,INTRAMUSCULAR,2023-04-08,2023-04-08,113,113,INDUCTION
NCT01797120,EX,NCT01797120-0126,7,FULVESTRANT,500,mg,SOLUTION,ONCE,INTRAMUSCULAR,2023-05-06,2023-05-06,141,141,INDUCTION
NCT01797120,EX,NCT01797120-0126,8,FULVESTRANT,500,mg,SOLUTION,ONCE,INTRAMUSCULAR,2023-06-03,2023-06-03,169,169,INDUCTION
NCT01797120,EX,NCT01797120-0126,18,EVEROLIMUS,10,mg,TABLET,QD,ORAL,2022-12-17,2023-06-04,1,170,INDUCTION
NCT01797120,EX,NCT01797120-0127,1,FULVESTRANT,250,mg,SOLUTION,ONCE,INTRAMUSCULAR,2021-10-09,2021-10-09,1,1,INDUCTION
NCT01797120,EX,NCT01797120-0127,2,FULVESTRANT,250,mg,SOLUTION,ONCE,INTRAMUSCULAR,2021-10-23,2021-10-23,15,15,INDUCTION
NCT01797120,EX,NCT01797120-0127,3,FULVESTRANT,500,mg,SOLUTION,ONCE,INTRAMUSCULAR,2021-11-06,2021-11-06,29,29,INDUCTION
NCT01797120,EX,NCT01797120-0127,4,FULVESTRANT,500,mg,SOLUTION,ONCE,INTRAMUSCULAR,2021-12-04,2021-12-04,57,57,INDUCTION
NCT01797120,EX,NCT01797120-0127,5,FULVESTRANT,500,mg,SOLUTION,ONCE,INTRAMUSCULAR,2022-01-01,2022-01-01,85,85,INDUCTION
NCT01797120,EX,NCT01797120-0127,6,FULVESTRANT,500,mg,SOLUTION,ONCE,INTRAMUSCULAR,2022-01-29,2022-01-29,113,113,INDUCTION
NCT01797120,EX,NCT01797120-0127,7,FULVESTRANT,500,mg,SOLUTION,ONCE,INTRAMUSCULAR,2022-02-26,2022-02-26,141,141,INDUCTION
NCT01797120,EX,NCT01797120-0127,8,FULVESTRANT,500,mg,SOLUTION,ONCE,INTRAMUSCULAR,2022-03-26,2022-03-26,169,169,INDUCTION
NCT01797120,EX,NCT01797120-0127,9,FULVESTRANT,500,mg,SOLUTION,ONCE,INTRAMUSCULAR,2022-04-23,2022-04-23,197,197,INDUCTION
NCT01797120,EX,NCT01797120-0127,10,FULVESTRANT,500,mg,SOLUTION,ONCE,INTRAMUSCULAR,2022-05-21,2022-05-21,225,225,INDUCTION
NCT01797120,EX,NCT01797120-0127,11,FULVESTRANT,500,mg,SOLUTION,ONCE,INTRAMUSCULAR,2022-06-18,2022-06-18,253,253,INDUCTION
NCT01797120,EX,NCT01797120-0127,12,FULVESTRANT,500,mg,SOLUTION,ONCE,INTRAMUSCULAR,2022-07-16,2022-07-16,281,281,INDUCTION
NCT01797120,EX,NCT01797120-0127,13,FULVESTRANT,500,mg,SOLUTION,ONCE,INTRAMUSCULAR,2022-08-13,2022-08-13,309,309,INDUCTION
NCT01797120,EX,NCT01797120-0127,14,FULVESTRANT,500,mg,SOLUTION,ONCE,INTRAMUSCULAR,2022-09-10,2022-09-10,337,337,INDUCTION
NCT01797120,EX,NCT01797120-0127,15,FULVESTRANT,500,mg,SOLUTION,ONCE,INTRAMUSCULAR,2022-10-08,2022-10-08,365,365,CONTINUATION
NCT01797120,EX,NCT01797120-0127,16,EVEROLIMUS,10,mg,TABLET,QD,ORAL,2021-10-09,2024-07-14,1,1010,INDUCTION
NCT01797120,EX,NCT01797120-0128,1,FULVESTRANT,250,mg,SOLUTION,ONCE,INTRAMUSCULAR,2022-03-03,2022-03-03,1,1,INDUCTION
NCT01797120,EX,NCT01797120-0128,2,FULVESTRANT,250,mg,SOLUTION,ONCE,INTRAMUSCULAR,2022-03-17,2022-03-17,15,15,INDUCTION
NCT01797120,EX,NCT01797120-0128,3,FULVESTRANT,500,mg,SOLUTION,ONCE,INTRAMUSCULAR,2022-03-31,2022-03-31,29,29,INDUCTION
NCT01797120,EX,NCT01797120-0128,4,FULVESTRANT,500,mg,SOLUTION,ONCE,INTRAMUSCULAR,2022-04-28,2022-04-28,57,57,INDUCTION
NCT01797120,EX,NCT01797120-0128,5,FULVESTRANT,500,mg,SOLUTION,ONCE,INTRAMUSCULAR,2022-05-26,2022-05-26,85,85,INDUCTION
NCT01797120,EX,NCT01797120-0128,6,FULVESTRANT,500,mg,SOLUTION,ONCE,INTRAMUSCULAR,2022-06-23,2022-06-23,113,113,INDUCTION
NCT01797120,EX,NCT01797120-0128,7,FULVESTRANT,500,mg,SOLUTION,ONCE,INTRAMUSCULAR,2022-07-21,2022-07-21,141,141,INDUCTION
NCT01797120,EX,NCT01797120-0128,8,FULVESTRANT,500,mg,SOLUTION,ONCE,INTRAMUSCULAR,2022-08-18,2022-08-18,169,169,INDUCTION
NCT01797120,EX,NCT01797120-0128,9,FULVESTRANT,500,mg,SOLUTION,ONCE,INTRAMUSCULAR,2022-09-15,2022-09-15,197,197,INDUCTION
NCT01797120,EX,NCT01797120-0128,10,FULVESTRANT,500,mg,SOLUTION,ONCE,INTRAMUSCULAR,2022-10-13,2022-10-13,225,225,INDUCTION
NCT01797120,EX,NCT01797120-0128,11,FULVESTRANT,500,mg,SOLUTION,ONCE,INTRAMUSCULAR,2022-11-10,2022-11-10,253,253,INDUCTION
NCT01797120,EX,NCT01797120-0128,12,FULVESTRANT,500,mg,SOLUTION,ONCE,INTRAMUSCULAR,2022-12-08,2022-12-08,281,281,INDUCTION
NCT01797120,EX,NCT01797120-0128,13,FULVESTRANT,500,mg,SOLUTION,ONCE,INTRAMUSCULAR,2023-01-05,2023-01-05,309,309,INDUCTION
NCT01797120,EX,NCT01797120-0128,14,FULVESTRANT,500,mg,SOLUTION,ONCE,INTRAMUSCULAR,2023-02-02,2023-02-02,337,337,INDUCTION
NCT01797120,EX,NCT01797120-0128,15,FULVESTRANT,500,mg,SOLUTION,ONCE,INTRAMUSCULAR,2023-03-02,2023-03-02,365,365,CONTINUATION
NCT01797120,EX,NCT01797120-0128,16,FULVESTRANT,500,mg,SOLUTION,ONCE,INTRAMUSCULAR,2023-03-30,2023-03-30,393,393,CONTINUATION
NCT01797120,EX,NCT01797120-0128,17,FULVESTRANT,500,mg,SOLUTION,ONCE,INTRAMUSCULAR,2023-04-27,2023-04-27,421,421,CONTINUATION
NCT01797120,EX,NCT01797120-0128,18,FULVESTRANT,500,mg,SOLUTION,ONCE,INTRAMUSCULAR,2023-05-25,2023-05-25,449,449,CONTINUATION
NCT01797120,EX,NCT01797120-0128,19,FULVESTRANT,500,mg,SOLUTION,ONCE,INTRAMUSCULAR,2023-06-22,2023-06-22,477,477,CONTINUATION
NCT01797120,EX,NCT01797120-0128,20,PLACEBO,0,mg,TABLET,QD,ORAL,2022-03-03,2023-07-21,1,506,INDUCTION
NCT01797120,EX,NCT01797120-0129,1,FULVESTRANT,250,mg,SOLUTION,ONCE,INTRAMUSCULAR,2022-04-16,2022-04-16,1,1,INDUCTION
NCT01797120,EX,NCT01797120-0129,2,FULVESTRANT,250,mg,SOLUTION,ONCE,INTRAMUSCULAR,2022-04-30,2022-04-30,15,15,INDUCTION
NCT01797120,EX,NCT01797120-0129,3,FULVESTRANT,500,mg,SOLUTION,ONCE,INTRAMUSCULAR,2022-05-14,2022-05-14,29,29,INDUCTION
NCT01797120,EX,NCT01797120-0129,4,FULVESTRANT,500,mg,SOLUTION,ONCE,INTRAMUSCULAR,2022-06-11,2022-06-11,57,57,INDUCTION
NCT01797120,EX,NCT01797120-0129,5,FULVESTRANT,500,mg,SOLUTION,ONCE,INTRAMUSCULAR,2022-07-09,2022-07-09,85,85,INDUCTION
NCT01797120,EX,NCT01797120-0129,6,FULVESTRANT,500,mg,SOLUTION,ONCE,INTRAMUSCULAR,2022-08-06,2022-08-06,113,113,INDUCTION
NCT01797120,EX,NCT01797120-0129,7,PLACEBO,0,mg,TABLET,QD,ORAL,2022-04-16,2023-11-26,1,590,INDUCTION
NCT01797120,EX,NCT01797120-0130,1,FULVESTRANT,250,mg,SOLUTION,ONCE,INTRAMUSCULAR,2021-10-12,2021-10-12,1,1,INDUCTION
NCT01797120,EX,NCT01797120-0130,2,FULVESTRANT,250,mg,SOLUTION,ONCE,INTRAMUSCULAR,2021-10-26,2021-10-26,15,15,INDUCTION
NCT01797120,EX,NCT01797120-0130,3,FULVESTRANT,500,mg,SOLUTION,ONCE,INTRAMUSCULAR,2021-11-09,2021-11-09,29,29,INDUCTION
NCT01797120,EX,NCT01797120-0130,4,FULVESTRANT,500,mg,SOLUTION,ONCE,INTRAMUSCULAR,2021-12-07,2021-12-07,57,57,INDUCTION
NCT01797120,EX,NCT01797120-0130,5,FULVESTRANT,500,mg,SOLUTION,ONCE,INTRAMUSCULAR,2022-01-04,2022-01-04,85,85,INDUCTION
NCT01797120,EX,NCT01797120-0130,6,FULVESTRANT,500,mg,SOLUTION,ONCE,INTRAMUSCULAR,2022-02-01,2022-02-01,113,113,INDUCTION
NCT01797120,EX,NCT01797120-0130,7,FULVESTRANT,500,mg,SOLUTION,ONCE,INTRAMUSCULAR,2022-03-01,2022-03-01,141,141,INDUCTION
NCT01797120,EX,NCT01797120-0130,8,FULVESTRANT,500,mg,SOLUTION,ONCE,INTRAMUSCULAR,2022-03-29,2022-03-29,169,169,INDUCTION
NCT01797120,EX,NCT01797120-0130,9,FULVESTRANT,500,mg,SOLUTION,ONCE,INTRAMUSCULAR,2022-04-26,2022-04-26,197,197,INDUCTION
NCT01797120,EX,NCT01797120-0130,10,PLACEBO,0,mg,TABLET,QD,ORAL,2021-10-12,2022-06-22,1,254,INDUCTION
NCT01797120,EX,NCT01797120-0131,1,FULVESTRANT,250,mg,SOLUTION,ONCE,INTRAMUSCULAR,2021-10-04,2021-10-04,1,1,INDUCTION
NCT01797120,EX,NCT01797120-0131,2,FULVESTRANT,250,mg,SOLUTION,ONCE,INTRAMUSCULAR,2021-10-18,2021-10-18,15,15,INDUCTION
NCT01797120,EX,NCT01797120-0131,3,FULVESTRANT,500,mg,SOLUTION,ONCE,INTRAMUSCULAR,2021-11-01,2021-11-01,29,29,INDUCTION
NCT01797120,EX,NCT01797120-0131,4,FULVESTRANT,500,mg,SOLUTION,ONCE,INTRAMUSCULAR,2021-11-29,2021-11-29,57,57,INDUCTION
NCT01797120,EX,NCT01797120-0131,5,FULVESTRANT,500,mg,SOLUTION,ONCE,INTRAMUSCULAR,2021-12-27,2021-12-27,85,85,INDUCTION
NCT01797120,EX,NCT01797120-0131,6,FULVESTRANT,500,mg,SOLUTION,ONCE,INTRAMUSCULAR,2022-01-24,2022-01-24,113,113,INDUCTION
NCT01797120,EX,NCT01797120-0131,7,FULVESTRANT,500,mg,SOLUTION,ONCE,INTRAMUSCULAR,2022-02-21,2022-02-21,141,141,INDUCTION
NCT01797120,EX,NCT01797120-0131,8,FULVESTRANT,500,mg,SOLUTION,ONCE,INTRAMUSCULAR,2022-03-21,2022-03-21,169,169,INDUCTION
NCT01797120,EX,NCT01797120-0131,9,FULVESTRANT,500,mg,SOLUTION,ONCE,INTRAMUSCULAR,2022-04-18,2022-04-18,197,197,INDUCTION
NCT01797120,EX,NCT01797120-0131,10,FULVESTRANT,500,mg,SOLUTION,ONCE,INTRAMUSCULAR,2022-05-16,2022-05-16,225,225,INDUCTION
NCT01797120,EX,NCT01797120-0131,11,FULVESTRANT,500,mg,SOLUTION,ONCE,INTRAMUSCULAR,2022-06-13,2022-06-13,253,253,INDUCTION
NCT01797120,EX,NCT01797120-0131,12,FULVESTRANT,500,mg,SOLUTION,ONCE,INTRAMUSCULAR,2022-07-11,2022-07-11,281,281,INDUCTION
NCT01797120,EX,NCT01797120-0131,13,FULVESTRANT,500,mg,SOLUTION,ONCE,INTRAMUSCULAR,2022-08-08,2022-08-08,309,309,INDUCTION
NCT01797120,EX,NCT01797120-0131,14,FULVESTRANT,500,mg,SOLUTION,ONCE,INTRAMUSCULAR,2022-09-05,2022-09-05,337,337,INDUCTION
NCT01797120,EX,NCT01797120-0131,15,FULVESTRANT,500,mg,SOLUTION,ONCE,INTRAMUSCULAR,2022-10-03,2022-10-03,365,365,CONTINUATION
NCT01797120,EX,NCT01797120-0131,16,FULVESTRANT,500,mg,SOLUTION,ONCE,INTRAMUSCULAR,2022-10-31,2022-10-31,393,393,CONTINUATION
NCT01797120,EX,NCT01797120-0131,17,FULVESTRANT,500,mg,SOLUTION,ONCE,INTRAMUSCULAR,2022-11-28,2022-11-28,421,421,CONTINUATION
NCT01797120,EX,NCT01797120-0131,18,FULVESTRANT,500,mg,SOLUTION,ONCE,INTRAMUSCULAR,2022-12-26,2022-12-26,449,449,CONTINUATION
NCT01797120,EX,NCT01797120-0131,19,EVEROLIMUS,10,mg,TABLET,QD,ORAL,2021-10-04,2023-01-15,1,469,INDUCTION
NCT01797120,EX,NCT01797120-0132,1,FULVESTRANT,250,mg,SOLUTION,ONCE,INTRAMUSCULAR,2021-11-21,2021-11-21,1,1,INDUCTION
NCT01797120,EX,NCT01797120-0132,2,FULVESTRANT,250,mg,SOLUTION,ONCE,INTRAMUSCULAR,2021-12-05,2021-12-05,15,15,INDUCTION
NCT01797120,EX,NCT01797120-0132,3,FULVESTRANT,500,mg,SOLUTION,ONCE,INTRAMUSCULAR,2021-12-19,2021-12-19,29,29,INDUCTION
NCT01797120,EX,NCT01797120-0132,4,FULVESTRANT,500,mg,SOLUTION,ONCE,INTRAMUSCULAR,2022-01-16,2022-01-16,57,57,INDUCTION
NCT01797120,EX,NCT01797120-0132,5,FULVESTRANT,500,mg,SOLUTION,ONCE,INTRAMUSCULAR,2022-02-13,2022-02-13,85,85,INDUCTION
NCT01797120,EX,NCT01797120-0132,11,EVEROLIMUS,10,mg,TABLET,QD,ORAL,2021-11-21,2022-02-14,1,86,INDUCTION
NCT01797120,EX,NCT01797120-0133,1,FULVESTRANT,250,mg,SOLUTION,ONCE,INTRAMUSCULAR,2022-06-19,2022-06-19,1,1,INDUCTION
NCT01797120,EX,NCT01797120-0133,2,FULVESTRANT,250,mg,SOLUTION,ONCE,INTRAMUSCULAR,2022-07-03,2022-07-03,15,15,INDUCTION
NCT01797120,EX,NCT01797120-0133,3,FULVESTRANT,500,mg,SOLUTION,ONCE,INTRAMUSCULAR,2022-07-17,2022-07-17,29,29,INDUCTION
NCT01797120,EX,NCT01797120-0133,4,FULVESTRANT,500,mg,SOLUTION,ONCE,INTRAMUSCULAR,2022-08-14,2022-08-14,57,57,INDUCTION
NCT01797120,EX,NCT01797120-0133,5,FULVESTRANT,500,mg,SOLUTION,ONCE,INTRAMUSCULAR,2022-09-11,2022-09-11,85,85,INDUCTION
NCT01797120,EX,NCT01797120-0133,6,FULVESTRANT,500,mg,SOLUTION,ONCE,INTRAMUSCULAR,2022-10-09,2022-10-09,113,113,INDUCTION
NCT01797120,EX,NCT01797120-0133,7,FULVESTRANT,500,mg,SOLUTION,ONCE,INTRAMUSCULAR,2022-11-06,2022-11-06,141,141,INDUCTION
NCT01797120,EX,NCT01797120-0133,8,FULVESTRANT,500,mg,SOLUTION,ONCE,INTRAMUSCULAR,2022-12-04,2022-12-04,169,169,INDUCTION
NCT01797120,EX,NCT01797120-0133,9,FULVESTRANT,500,mg,SOLUTION,ONCE,INTRAMUSCULAR,2023-01-01,2023-01-01,197,197,INDUCTION
NCT01797120,EX,NCT01797120-0133,10,FULVESTRANT,500,mg,SOLUTION,ONCE,INTRAMUSCULAR,2023-01-29,2023-01-29,225,225,INDUCTION
NCT01797120,EX,NCT01797120-0133,11,FULVESTRANT,500,mg,SOLUTION,ONCE,INTRAMUSCULAR,2023-02-26,2023-02-26,253,253,INDUCTION
NCT01797120,EX,NCT01797120-0133,12,FULVESTRANT,500,mg,SOLUTION,ONCE,INTRAMUSCULAR,2023-03-26,2023-03-26,281,281,INDUCTION
NCT01797120,EX,NCT01797120-0133,13,FULVESTRANT,500,mg,SOLUTION,ONCE,INTRAMUSCULAR,2023-04-23,2023-04-23,309,309,INDUCTION
NCT01797120,EX,NCT01797120-0133,14,FULVESTRANT,500,mg,SOLUTION,ONCE,INTRAMUSCULAR,2023-05-21,2023-05-21,337,337,INDUCTION
NCT01797120,EX,NCT01797120-0133,15,FULVESTRANT,500,mg,SOLUTION,ONCE,INTRAMUSCULAR,2023-06-18,2023-06-18,365,365,CONTINUATION
NCT01797120,EX,NCT01797120-0133,16,EVEROLIMUS,10,mg,TABLET,QD,ORAL,2022-06-19,2023-07-09,1,386,INDUCTION
NCT01797120,EX,NCT01797120-0134,1,FULVESTRANT,250,mg,SOLUTION,ONCE,INTRAMUSCULAR,2021-08-16,2021-08-16,1,1,INDUCTION
NCT01797120,EX,NCT01797120-0134,2,FULVESTRANT,250,mg,SOLUTION,ONCE,INTRAMUSCULAR,2021-08-30,2021-08-30,15,15,INDUCTION
NCT01797120,EX,NCT01797120-0134,3,FULVESTRANT,500,mg,SOLUTION,ONCE,INTRAMUSCULAR,2021-09-13,2021-09-13,29,29,INDUCTION
NCT01797120,EX,NCT01797120-0134,4,FULVESTRANT,500,mg,SOLUTION,ONCE,INTRAMUSCULAR,2021-10-11,2021-10-11,57,57,INDUCTION
NCT01797120,EX,NCT01797120-0134,5,FULVESTRANT,500,mg,SOLUTION,ONCE,INTRAMUSCULAR,2021-11-08,2021-11-08,85,85,INDUCTION
NCT01797120,EX,NCT01797120-0134,6,FULVESTRANT,500,mg,SOLUTION,ONCE,INTRAMUSCULAR,2021-12-06,2021-12-06,113,113,INDUCTION
NCT01797120,EX,NCT01797120-0134,7,FULVESTRANT,500,mg,SOLUTION,ONCE,INTRAMUSCULAR,2022-01-03,2022-01-03,141,141,INDUCTION
NCT01797120,EX,NCT01797120-0134,8,FULVESTRANT,500,mg,SOLUTION,ONCE,INTRAMUSCULAR,2022-01-31,2022-01-31,169,169,INDUCTION
NCT01797120,EX,NCT01797120-0134,9,FULVESTRANT,500,mg,SOLUTION,ONCE,INTRAMUSCULAR,2022-02-28,2022-02-28,197,197,INDUCTION
NCT01797120,EX,NCT01797120-0134,10,FULVESTRANT,500,mg,SOLUTION,ONCE,INTRAMUSCULAR,2022-03-28,2022-03-28,225,225,INDUCTION
NCT01797120,EX,NCT01797120-0134,11,FULVESTRANT,500,mg,SOLUTION,ONCE,INTRAMUSCULAR,2022-04-25,2022-04-25,253,253,INDUCTION
NCT01797120,EX,NCT01797120-0134,12,FULVESTRANT,500,mg,SOLUTION,ONCE,INTRAMUSCULAR,2022-05-23,2022-05-23,281,281,INDUCTION
NCT01797120,EX,NCT01797120-0134,13,FULVESTRANT,500,mg,SOLUTION,ONCE,INTRAMUSCULAR,2022-06-20,2022-06-20,309,309,INDUCTION
NCT01797120,EX,NCT01797120-0134,14,FULVESTRANT,500,mg,SOLUTION,ONCE,INTRAMUSCULAR,2022-07-18,2022-07-18,337,337,INDUCTION
NCT01797120,EX,NCT01797120-0134,17,PLACEBO,0,mg,TABLET,QD,ORAL,2021-08-16,2022-07-19,1,338,INDUCTION
NCT01797120,EX,NCT01797120-0135,1,FULVESTRANT,250,mg,SOLUTION,ONCE,INTRAMUSCULAR,2022-08-19,2022-08-19,1,1,INDUCTION
NCT01797120,EX,NCT01797120-0135,2,FULVESTRANT,250,mg,SOLUTION,ONCE,INTRAMUSCULAR,2022-09-02,2022-09-02,15,15,INDUCTION
NCT01797120,EX,NCT01797120-0135,3,FULVESTRANT,500,mg,SOLUTION,ONCE,INTRAMUSCULAR,2022-09-16,2022-09-16,29,29,INDUCTION
NCT01797120,EX,NCT01797120-0135,4,FULVESTRANT,500,mg,SOLUTION,ONCE,INTRAMUSCULAR,2022-10-14,2022-10-14,57,57,INDUCTION
NCT01797120,EX,NCT01797120-0135,5,FULVESTRANT,500,mg,SOLUTION,ONCE,INTRAMUSCULAR,2022-11-11,2022-11-11,85,85,INDUCTION
NCT01797120,EX,NCT01797120-0135,6,FULVESTRANT,500,mg,SOLUTION,ONCE,INTRAMUSCULAR,2022-12-09,2022-12-09,113,113,INDUCTION
NCT01797120,EX,NCT01797120-0135,7,FULVESTRANT,500,mg,SOLUTION,ONCE,INTRAMUSCULAR,2023-01-06,2023-01-06,141,141,INDUCTION
NCT01797120,EX,NCT01797120-0135,8,FULVESTRANT,500,mg,SOLUTION,ONCE,INTRAMUSCULAR,2023-02-03,2023-02-03,169,169,INDUCTION
NCT01797120,EX,NCT01797120-0135,9,FULVESTRANT,500,mg,SOLUTION,ONCE,INTRAMUSCULAR,2023-03-03,2023-03-03,197,197,INDUCTION
NCT01797120,EX,NCT01797120-0135,10,PLACEBO,0,mg,TABLET,QD,ORAL,2022-08-19,2023-04-29,1,254,INDUCTION
NCT01797120,EX,NCT01797120-0136,1,FULVESTRANT,250,mg,SOLUTION,ONCE,INTRAMUSCULAR,2022-10-10,2022-10-10,1,1,INDUCTION
NCT01797120,EX,NCT01797120-0136,2,FULVESTRANT,250,mg,SOLUTION,ONCE,INTRAMUSCULAR,2022-10-24,2022-10-24,15,15,INDUCTION
NCT01797120,EX,NCT01797120-0136,3,FULVESTRANT,500,mg,SOLUTION,ONCE,INTRAMUSCULAR,2022-11-07,2022-11-07,29,29,INDUCTION
NCT01797120,EX,NCT01797120-0136,4,FULVESTRANT,500,mg,SOLUTION,ONCE,INTRAMUSCULAR,2022-12-05,2022-12-05,57,57,INDUCTION
NCT01797120,EX,NCT01797120-0136,5,FULVESTRANT,500,mg,SOLUTION,ONCE,INTRAMUSCULAR,2023-01-02,2023-01-02,85,85,INDUCTION
NCT01797120,EX,NCT01797120-0136,6,FULVESTRANT,500,mg,SOLUTION,ONCE,INTRAMUSCULAR,2023-01-30,2023-01-30,113,113,INDUCTION
NCT01797120,EX,NCT01797120-0136,7,FULVESTRANT,500,mg,SOLUTION,ONCE,INTRAMUSCULAR,2023-02-27,2023-02-27,141,141,INDUCTION
NCT01797120,EX,NCT01797120-0136,8,FULVESTRANT,500,mg,SOLUTION,ONCE,INTRAMUSCULAR,2023-03-27,2023-03-27,169,169,INDUCTION
NCT01797120,EX,NCT01797120-0136,14,PLACEBO,0,mg,TABLET,QD,ORAL,2022-10-10,2023-03-28,1,170,INDUCTION
NCT01797120,EX,NCT01797120-0137,1,FULVESTRANT,250,mg,SOLUTION,ONCE,INTRAMUSCULAR,2022-07-28,2022-07-28,1,1,INDUCTION
NCT01797120,EX,NCT01797120-0137,2,FULVESTRANT,250,mg,SOLUTION,ONCE,INTRAMUSCULAR,2022-08-11,2022-08-11,15,15,INDUCTION
NCT01797120,EX,NCT01797120-0137,3,FULVESTRANT,500,mg,SOLUTION,ONCE,INTRAMUSCULAR,2022-08-25,2022-08-25,29,29,INDUCTION
NCT01797120,EX,NCT01797120-0137,4,FULVESTRANT,500,mg,SOLUTION,ONCE,INTRAMUSCULAR,2022-09-22,2022-09-22,57,57,INDUCTION
NCT01797120,EX,NCT01797120-0137,5,FULVESTRANT,500,mg,SOLUTION,ONCE,INTRAMUSCULAR,2022-10-20,2022-10-20,85,85,INDUCTION
NCT01797120,EX,NCT01797120-0137,18,PLACEBO,0,mg,TABLET,QD,ORAL,2022-07-28,2022-10-21,1,86,INDUCTION
NCT01797120,EX,NCT01797120-0138,1,FULVESTRANT,250,mg,SOLUTION,ONCE,INTRAMUSCULAR,2022-10-16,2022-10-16,1,1,INDUCTION
NCT01797120,EX,NCT01797120-0138,2,FULVESTRANT,250,mg,SOLUTION,ONCE,INTRAMUSCULAR,2022-10-30,2022-10-30,15,15,INDUCTION
NCT01797120,EX,NCT01797120-0138,3,FULVESTRANT,500,mg,SOLUTION,ONCE,INTRAMUSCULAR,2022-11-13,2022-11-13,29,29,INDUCTION
NCT01797120,EX,NCT01797120-0138,4,FULVESTRANT,500,mg,SOLUTION,ONCE,INTRAMUSCULAR,2022-12-11,2022-12-11,57,57,INDUCTION
NCT01797120,EX,NCT01797120-0138,5,FULVESTRANT,500,mg,SOLUTION,ONCE,INTRAMUSCULAR,2023-01-08,2023-01-08,85,85,INDUCTION
NCT01797120,EX,NCT01797120-0138,6,FULVESTRANT,500,mg,SOLUTION,ONCE,INTRAMUSCULAR,2023-02-05,2023-02-05,113,113,INDUCTION
NCT01797120,EX,NCT01797120-0138,7,FULVESTRANT,500,mg,SOLUTION,ONCE,INTRAMUSCULAR,2023-03-05,2023-03-05,141,141,INDUCTION
NCT01797120,EX,NCT01797120-0138,8,FULVESTRANT,500,mg,SOLUTION,ONCE,INTRAMUSCULAR,2023-04-02,2023-04-02,169,169,INDUCTION
NCT01797120,EX,NCT01797120-0138,9,FULVESTRANT,500,mg,SOLUTION,ONCE,INTRAMUSCULAR,2023-04-30,2023-04-30,197,197,INDUCTION
NCT01797120,EX,NCT01797120-0138,10,FULVESTRANT,500,mg,SOLUTION,ONCE,INTRAMUSCULAR,2023-05-28,2023-05-28,225,225,INDUCTION
NCT01797120,EX,NCT01797120-0138,11,FULVESTRANT,500,mg,SOLUTION,ONCE,INTRAMUSCULAR,2023-06-25,2023-06-25,253,253,INDUCTION
NCT01797120,EX,NCT01797120-0138,12,FULVESTRANT,500,mg,SOLUTION,ONCE,INTRAMUSCULAR,2023-07-23,2023-07-23,281,281,INDUCTION
NCT01797120,EX,NCT01797120-0138,13,FULVESTRANT,500,mg,SOLUTION,ONCE,INTRAMUSCULAR,2023-08-20,2023-08-20,309,309,INDUCTION
NCT01797120,EX,NCT01797120-0138,14,FULVESTRANT,500,mg,SOLUTION,ONCE,INTRAMUSCULAR,2023-09-17,2023-09-17,337,337,INDUCTION
NCT01797120,EX,NCT01797120-0138,15,FULVESTRANT,500,mg,SOLUTION,ONCE,INTRAMUSCULAR,2023-10-15,2023-10-15,365,365,CONTINUATION
NCT01797120,EX,NCT01797120-0138,16,FULVESTRANT,500,mg,SOLUTION,ONCE,INTRAMUSCULAR,2023-11-12,2023-11-12,393,393,CONTINUATION
NCT01797120,EX,NCT01797120-0138,17,FULVESTRANT,500,mg,SOLUTION,ONCE,INTRAMUSCULAR,2023-12-10,2023-12-10,421,421,CONTINUATION
NCT01797120,EX,NCT01797120-0138,18,FULVESTRANT,500,mg,SOLUTION,ONCE,INTRAMUSCULAR,2024-01-07,2024-01-07,449,449,CONTINUATION
NCT01797120,EX,NCT01797120-0138,19,FULVESTRANT,500,mg,SOLUTION,ONCE,INTRAMUSCULAR,2024-02-04,2024-02-04,477,477,CONTINUATION
NCT01797120,EX,NCT01797120-0138,20,EVEROLIMUS,10,mg,TABLET,QD,ORAL,2022-10-16,2025-07-21,1,1010,INDUCTION
NCT01797120,EX,NCT01797120-0139,1,FULVESTRANT,250,mg,SOLUTION,ONCE,INTRAMUSCULAR,2022-06-02,2022-06-02,1,1,INDUCTION
NCT01797120,EX,NCT01797120-0139,2,FULVESTRANT,250,mg,SOLUTION,ONCE,INTRAMUSCULAR,2022-06-16,2022-06-16,15,15,INDUCTION
NCT01797120,EX,NCT01797120-0139,3,FULVESTRANT,500,mg,SOLUTION,ONCE,INTRAMUSCULAR,2022-06-30,2022-06-30,29,29,INDUCTION
NCT01797120,EX,NCT01797120-0139,4,FULVESTRANT,500,mg,SOLUTION,ONCE,INTRAMUSCULAR,2022-07-28,2022-07-28,57,57,INDUCTION
NCT01797120,EX,NCT01797120-0139,5,FULVESTRANT,500,mg,SOLUTION,ONCE,INTRAMUSCULAR,2022-08-25,2022-08-25,85,85,INDUCTION
NCT01797120,EX,NCT01797120-0139,6,FULVESTRANT,500,mg,SOLUTION,ONCE,INTRAMUSCULAR,2022-09-22,2022-09-22,113,113,INDUCTION
NCT01797120,EX,NCT01797120-0139,7,FULVESTRANT,500,mg,SOLUTION,ONCE,INTRAMUSCULAR,2022-10-20,2022-10-20,141,141,INDUCTION
NCT01797120,EX,NCT01797120-0139,8,FULVESTRANT,500,mg,SOLUTION,ONCE,INTRAMUSCULAR,2022-11-17,2022-11-17,169,169,INDUCTION
NCT01797120,EX,NCT01797120-0139,9,FULVESTRANT,500,mg,SOLUTION,ONCE,INTRAMUSCULAR,2022-12-15,2022-12-15,197,197,INDUCTION
NCT01797120,EX,NCT01797120-0139,10,FULVESTRANT,500,mg,SOLUTION,ONCE,INTRAMUSCULAR,2023-01-12,2023-01-12,225,225,INDUCTION
NCT01797120,EX,NCT01797120-0139,11,FULVESTRANT,500,mg,SOLUTION,ONCE,INTRAMUSCULAR,2023-02-09,2023-02-09,253,253,INDUCTION
NCT01797120,EX,NCT01797120-0139,12,FULVESTRANT,500,mg,SOLUTION,ONCE,INTRAMUSCULAR,2023-03-09,2023-03-09,281,281,INDUCTION
NCT01797120,EX,NCT01797120-0139,13,FULVESTRANT,500,mg,SOLUTION,ONCE,INTRAMUSCULAR,2023-04-06,2023-04-06,309,309,INDUCTION
NCT01797120,EX,NCT01797120-0139,14,FULVESTRANT,500,mg,SOLUTION,ONCE,INTRAMUSCULAR,2023-05-04,2023-05-04,337,337,INDUCTION
NCT01797120,EX,NCT01797120-0139,15,FULVESTRANT,500,mg,SOLUTION,ONCE,INTRAMUSCULAR,2023-06-01,2023-06-01,365,365,CONTINUATION
NCT01797120,EX,NCT01797120-0139,16,FULVESTRANT,500,mg,SOLUTION,ONCE,INTRAMUSCULAR,2023-06-29,2023-06-29,393,393,CONTINUATION
NCT01797120,EX,NCT01797120-0139,17,PLACEBO,0,mg,TABLET,QD,ORAL,2022-06-02,2024-06-28,1,758,INDUCTION
NCT01797120,EX,NCT01797120-0140,1,FULVESTRANT,250,mg,SOLUTION,ONCE,INTRAMUSCULAR,2021-09-14,2021-09-14,1,1,INDUCTION
NCT01797120,EX,NCT01797120-0140,2,FULVESTRANT,250,mg,SOLUTION,ONCE,INTRAMUSCULAR,2021-09-28,2021-09-28,15,15,INDUCTION
NCT01797120,EX,NCT01797120-0140,3,FULVESTRANT,500,mg,SOLUTION,ONCE,INTRAMUSCULAR,2021-10-12,2021-10-12,29,29,INDUCTION
NCT01797120,EX,NCT01797120-0140,4,FULVESTRANT,500,mg,SOLUTION,ONCE,INTRAMUSCULAR,2021-11-09,2021-11-09,57,57,INDUCTION
NCT01797120,EX,NCT01797120-0140,5,FULVESTRANT,500,mg,SOLUTION,ONCE,INTRAMUSCULAR,2021-12-07,2021-12-07,85,85,INDUCTION
NCT01797120,EX,NCT01797120-0140,6,FULVESTRANT,500,mg,SOLUTION,ONCE,INTRAMUSCULAR,2022-01-04,2022-01-04,113,113,INDUCTION
NCT01797120,EX,NCT01797120-0140,7,FULVESTRANT,500,mg,SOLUTION,ONCE,INTRAMUSCULAR,2022-02-01,2022-02-01,141,141,INDUCTION
NCT01797120,EX,NCT01797120-0140,8,FULVESTRANT,500,mg,SOLUTION,ONCE,INTRAMUSCULAR,2022-03-01,2022-03-01,169,169,INDUCTION
NCT01797120,EX,NCT01797120-0140,9,FULVESTRANT,500,mg,SOLUTION,ONCE,INTRAMUSCULAR,2022-03-29,2022-03-29,197,197,INDUCTION
NCT01797120,EX,NCT01797120-0140,10,FULVESTRANT,500,mg,SOLUTION,ONCE,INTRAMUSCULAR,2022-04-26,2022-04-26,225,225,INDUCTION
NCT01797120,EX,NCT01797120-0140,11,FULVESTRANT,500,mg,SOLUTION,ONCE,INTRAMUSCULAR,2022-05-24,2022-05-24,253,253,INDUCTION
NCT01797120,EX,NCT01797120-0140,12,EVEROLIMUS,10,mg,TABLET,QD,ORAL,2021-09-14,2022-08-17,1,338,INDUCTION
NCT01797120,EX,NCT01797120-0141,1,FULVESTRANT,250,mg,SOLUTION,ONCE,INTRAMUSCULAR,2021-05-17,2021-05-17,1,1,INDUCTION
NCT01797120,EX,NCT01797120-0141,2,FULVESTRANT,250,mg,SOLUTION,ONCE,INTRAMUSCULAR,2021-05-31,2021-05-31,15,15,INDUCTION
NCT01797120,EX,NCT01797120-0141,3,FULVESTRANT,500,mg,SOLUTION,ONCE,INTRAMUSCULAR,2021-06-14,2021-06-14,29,29,INDUCTION
NCT01797120,EX,NCT01797120-0141,4,FULVESTRANT,500,mg,SOLUTION,ONCE,INTRAMUSCULAR,2021-07-12,2021-07-12,57,57,INDUCTION
NCT01797120,EX,NCT01797120-0141,5,PLACEBO,0,mg,TABLET,QD,ORAL,2021-05-17,2021-08-10,1,86,INDUCTION
NCT01797120,EX,NCT01797120-0142,1,FULVESTRANT,250,mg,SOLUTION,ONCE,INTRAMUSCULAR,2021-07-27,2021-07-27,1,1,INDUCTION
NCT01797120,EX,NCT01797120-0142,2,FULVESTRANT,250,mg,SOLUTION,ONCE,INTRAMUSCULAR,2021-08-10,2021-08-10,15,15,INDUCTION
NCT01797120,EX,NCT01797120-0142,3,FULVESTRANT,500,mg,SOLUTION,ONCE,INTRAMUSCULAR,2021-08-24,2021-08-24,29,29,INDUCTION
NCT01797120,EX,NCT01797120-0142,4,FULVESTRANT,500,mg,SOLUTION,ONCE,INTRAMUSCULAR,2021-09-21,2021-09-21,57,57,INDUCTION
NCT01797120,EX,NCT01797120-0142,5,FULVESTRANT,500,mg,SOLUTION,ONCE,INTRAMUSCULAR,2021-10-19,2021-10-19,85,85,INDUCTION
NCT01797120,EX,NCT01797120-0142,22,PLACEBO,0,mg,TABLET,QD,ORAL,2021-07-27,2021-10-20,1,86,INDUCTION
NCT01797120,EX,NCT01797120-0143,1,FULVESTRANT,250,mg,SOLUTION,ONCE,INTRAMUSCULAR,2022-04-09,2022-04-09,1,1,INDUCTION
NCT01797120,EX,NCT01797120-0143,2,FULVESTRANT,250,mg,SOLUTION,ONCE,INTRAMUSCULAR,2022-04-23,2022-04-23,15,15,INDUCTION
NCT01797120,EX,NCT01797120-0143,3,FULVESTRANT,500,mg,SOLUTION,ONCE,INTRAMUSCULAR,2022-05-07,2022-05-07,29,29,INDUCTION
NCT01797120,EX,NCT01797120-0143,4,FULVESTRANT,500,mg,SOLUTION,ONCE,INTRAMUSCULAR,2022-06-04,2022-06-04,57,57,INDUCTION
NCT01797120,EX,NCT01797120-0143,5,EVEROLIMUS,10,mg,TABLET,QD,ORAL,2022-04-09,2022-09-25,1,170,INDUCTION
NCT01797120,EX,NCT01797120-0144,1,FULVESTRANT,250,mg,SOLUTION,ONCE,INTRAMUSCULAR,2021-05-20,2021-05-20,1,1,INDUCTION
NCT01797120,EX,NCT01797120-0144,2,FULVESTRANT,250,mg,SOLUTION,ONCE,INTRAMUSCULAR,2021-06-03,2021-06-03,15,15,INDUCTION
NCT01797120,EX,NCT01797120-0144,3,FULVESTRANT,500,mg,SOLUTION,ONCE,INTRAMUSCULAR,2021-06-17,2021-06-17,29,29,INDUCTION
NCT01797120,EX,NCT01797120-0144,4,FULVESTRANT,500,mg,SOLUTION,ONCE,INTRAMUSCULAR,2021-07-15,2021-07-15,57,57,INDUCTION
NCT01797120,EX,NCT01797120-0144,5,FULVESTRANT,500,mg,SOLUTION,ONCE,INTRAMUSCULAR,2021-08-12,2021-08-12,85,85,INDUCTION
NCT01797120,EX,NCT01797120-0144,6,FULVESTRANT,500,mg,SOLUTION,ONCE,INTRAMUSCULAR,2021-09-09,2021-09-09,113,113,INDUCTION
NCT01797120,EX,NCT01797120-0144,7,EVEROLIMUS,10,mg,TABLET,QD,ORAL,2021-05-20,2021-09-12,1,116,INDUCTION
NCT01797120,EX,NCT01797120-0145,1,FULVESTRANT,250,mg,SOLUTION,ONCE,INTRAMUSCULAR,2021-01-05,2021-01-05,1,1,INDUCTION
NCT01797120,EX,NCT01797120-0145,2,FULVESTRANT,250,mg,SOLUTION,ONCE,INTRAMUSCULAR,2021-01-19,2021-01-19,15,15,INDUCTION
NCT01797120,EX,NCT01797120-0145,3,FULVESTRANT,500,mg,SOLUTION,ONCE,INTRAMUSCULAR,2021-02-02,2021-02-02,29,29,INDUCTION
NCT01797120,EX,NCT01797120-0145,4,FULVESTRANT,500,mg,SOLUTION,ONCE,INTRAMUSCULAR,2021-03-02,2021-03-02,57,57,INDUCTION
NCT01797120,EX,NCT01797120-0145,5,FULVESTRANT,500,mg,SOLUTION,ONCE,INTRAMUSCULAR,2021-03-30,2021-03-30,85,85,INDUCTION
NCT01797120,EX,NCT01797120-0145,6,FULVESTRANT,500,mg,SOLUTION,ONCE,INTRAMUSCULAR,2021-04-27,2021-04-27,113,113,INDUCTION
NCT01797120,EX,NCT01797120-0145,7,FULVESTRANT,500,mg,SOLUTION,ONCE,INTRAMUSCULAR,2021-05-25,2021-05-25,141,141,INDUCTION
NCT01797120,EX,NCT01797120-0145,8,FULVESTRANT,500,mg,SOLUTION,ONCE,INTRAMUSCULAR,2021-06-22,2021-06-22,169,169,INDUCTION
NCT01797120,EX,NCT01797120-0145,9,FULVESTRANT,500,mg,SOLUTION,ONCE,INTRAMUSCULAR,2021-07-20,2021-07-20,197,197,INDUCTION
NCT01797120,EX,NCT01797120-0145,10,FULVESTRANT,500,mg,SOLUTION,ONCE,INTRAMUSCULAR,2021-08-17,2021-08-17,225,225,INDUCTION
NCT01797120,EX,NCT01797120-0145,11,FULVESTRANT,500,mg,SOLUTION,ONCE,INTRAMUSCULAR,2021-09-14,2021-09-14,253,253,INDUCTION
NCT01797120,EX,NCT01797120-0145,12,FULVESTRANT,500,mg,SOLUTION,ONCE,INTRAMUSCULAR,2021-10-12,2021-10-12,281,281,INDUCTION
NCT01797120,EX,NCT01797120-0145,13,FULVESTRANT,500,mg,SOLUTION,ONCE,INTRAMUSCULAR,2021-11-09,2021-11-09,309,309,INDUCTION
NCT01797120,EX,NCT01797120-0145,14,FULVESTRANT,500,mg,SOLUTION,ONCE,INTRAMUSCULAR,2021-12-07,2021-12-07,337,337,INDUCTION
NCT01797120,EX,NCT01797120-0145,15,FULVESTRANT,500,mg,SOLUTION,ONCE,INTRAMUSCULAR,2022-01-04,2022-01-04,365,365,CONTINUATION
NCT01797120,EX,NCT01797120-0145,16,FULVESTRANT,500,mg,SOLUTION,ONCE,INTRAMUSCULAR,2022-02-01,2022-02-01,393,393,CONTINUATION
NCT01797120,EX,NCT01797120-0145,17,FULVESTRANT,500,mg,SOLUTION,ONCE,INTRAMUSCULAR,2022-03-01,2022-03-01,421,421,CONTINUATION
NCT01797120,EX,NCT01797120-0145,20,EVEROLIMUS,10,mg,TABLET,QD,ORAL,2021-01-05,2022-03-02,1,422,INDUCTION
NCT01797120,EX,NCT01797120-0146,1,FULVESTRANT,250,mg,SOLUTION,ONCE,INTRAMUSCULAR,2022-02-28,2022-02-28,1,1,INDUCTION
NCT01797120,EX,NCT01797120-0146,2,FULVESTRANT,250,mg,SOLUTION,ONCE,INTRAMUSCULAR,2022-03-14,2022-03-14,15,15,INDUCTION
NCT01797120,EX,NCT01797120-0146,3,FULVESTRANT,500,mg,SOLUTION,ONCE,INTRAMUSCULAR,2022-03-28,2022-03-28,29,29,INDUCTION
NCT01797120,EX,NCT01797120-0146,4,FULVESTRANT,500,mg,SOLUTION,ONCE,INTRAMUSCULAR,2022-04-25,2022-04-25,57,57,INDUCTION
NCT01797120,EX,NCT01797120-0146,5,FULVESTRANT,500,mg,SOLUTION,ONCE,INTRAMUSCULAR,2022-05-23,2022-05-23,85,85,INDUCTION
NCT01797120,EX,NCT01797120-0146,6,EVEROLIMUS,10,mg,TABLET,QD,ORAL,2022-02-28,2022-08-16,1,170,INDUCTION
NCT01797120,EX,NCT01797120-0147,1,FULVESTRANT,250,mg,SOLUTION,ONCE,INTRAMUSCULAR,2021-12-15,2021-12-15,1,1,INDUCTION
NCT01797120,EX,NCT01797120-0147,2,FULVESTRANT,250,mg,SOLUTION,ONCE,INTRAMUSCULAR,2021-12-29,2021-12-29,15,15,INDUCTION
NCT01797120,EX,NCT01797120-0147,3,FULVESTRANT,500,mg,SOLUTION,ONCE,INTRAMUSCULAR,2022-01-12,2022-01-12,29,29,INDUCTION
NCT01797120,EX,NCT01797120-0147,4,FULVESTRANT,500,mg,SOLUTION,ONCE,INTRAMUSCULAR,2022-02-09,2022-02-09,57,57,INDUCTION
NCT01797120,EX,NCT01797120-0147,5,FULVESTRANT,500,mg,SOLUTION,ONCE,INTRAMUSCULAR,2022-03-09,2022-03-09,85,85,INDUCTION
NCT01797120,EX,NCT01797120-0147,22,PLACEBO,0,mg,TABLET,QD,ORAL,2021-12-15,2022-03-10,1,86,INDUCTION
NCT01797120,EX,NCT01797120-0148,1,FULVESTRANT,250,mg,SOLUTION,ONCE,INTRAMUSCULAR,2021-10-10,2021-10-10,1,1,INDUCTION
NCT01797120,EX,NCT01797120-0148,2,FULVESTRANT,250,mg,SOLUTION,ONCE,INTRAMUSCULAR,2021-10-24,2021-10-24,15,15,INDUCTION
NCT01797120,EX,NCT01797120-0148,3,FULVESTRANT,500,mg,SOLUTION,ONCE,INTRAMUSCULAR,2021-11-07,2021-11-07,29,29,INDUCTION
NCT01797120,EX,NCT01797120-0148,4,FULVESTRANT,500,mg,SOLUTION,ONCE,INTRAMUSCULAR,2021-12-05,2021-12-05,57,57,INDUCTION
NCT01797120,EX,NCT01797120-0148,5,FULVESTRANT,500,mg,SOLUTION,ONCE,INTRAMUSCULAR,2022-01-02,2022-01-02,85,85,INDUCTION
NCT01797120,EX,NCT01797120-0148,6,FULVESTRANT,500,mg,SOLUTION,ONCE,INTRAMUSCULAR,2022-01-30,2022-01-30,113,113,INDUCTION
NCT01797120,EX,NCT01797120-0148,7,FULVESTRANT,500,mg,SOLUTION,ONCE,INTRAMUSCULAR,2022-02-27,2022-02-27,141,141,INDUCTION
NCT01797120,EX,NCT01797120-0148,8,FULVESTRANT,500,mg,SOLUTION,ONCE,INTRAMUSCULAR,2022-03-27,2022-03-27,169,169,INDUCTION
NCT01797120,EX,NCT01797120-0148,22,PLACEBO,0,mg,TABLET,QD,ORAL,2021-10-10,2022-03-28,1,170,INDUCTION
NCT01797120,EX,NCT01797120-0149,1,FULVESTRANT,250,mg,SOLUTION,ONCE,INTRAMUSCULAR,2022-08-10,2022-08-10,1,1,INDUCTION
NCT01797120,EX,NCT01797120-0149,2,FULVESTRANT,250,mg,SOLUTION,ONCE,INTRAMUSCULAR,2022-08-24,2022-08-24,15,15,INDUCTION
NCT01797120,EX,NCT01797120-0149,3,FULVESTRANT,500,mg,SOLUTION,ONCE,INTRAMUSCULAR,2022-09-07,2022-09-07,29,29,INDUCTION
NCT01797120,EX,NCT01797120-0149,4,FULVESTRANT,500,mg,SOLUTION,ONCE,INTRAMUSCULAR,2022-10-05,2022-10-05,57,57,INDUCTION
NCT01797120,EX,NCT01797120-0149,5,FULVESTRANT,500,mg,SOLUTION,ONCE,INTRAMUSCULAR,2022-11-02,2022-11-02,85,85,INDUCTION
NCT01797120,EX,NCT01797120-0149,6,EVEROLIMUS,10,mg,TABLET,QD,ORAL,2022-08-10,2023-10-05,1,422,INDUCTION
NCT01797120,EX,NCT01797120-0150,1,FULVESTRANT,250,mg,SOLUTION,ONCE,INTRAMUSCULAR,2022-03-10,2022-03-10,1,1,INDUCTION
NCT01797120,EX,NCT01797120-0150,2,FULVESTRANT,250,mg,SOLUTION,ONCE,INTRAMUSCULAR,2022-03-24,2022-03-24,15,15,INDUCTION
NCT01797120,EX,NCT01797120-0150,3,FULVESTRANT,500,mg,SOLUTION,ONCE,INTRAMUSCULAR,2022-04-07,2022-04-07,29,29,INDUCTION
NCT01797120,EX,NCT01797120-0150,4,FULVESTRANT,500,mg,SOLUTION,ONCE,INTRAMUSCULAR,2022-05-05,2022-05-05,57,57,INDUCTION
NCT01797120,EX,NCT01797120-0150,5,FULVESTRANT,500,mg,SOLUTION,ONCE,INTRAMUSCULAR,2022-06-02,2022-06-02,85,85,INDUCTION
NCT01797120,EX,NCT01797120-0150,6,FULVESTRANT,500,mg,SOLUTION,ONCE,INTRAMUSCULAR,2022-06-30,2022-06-30,113,113,INDUCTION
NCT01797120,EX,NCT01797120-0150,7,FULVESTRANT,500,mg,SOLUTION,ONCE,INTRAMUSCULAR,2022-07-28,2022-07-28,141,141,INDUCTION
NCT01797120,EX,NCT01797120-0150,8,FULVESTRANT,500,mg,SOLUTION,ONCE,INTRAMUSCULAR,2022-08-25,2022-08-25,169,169,INDUCTION
NCT01797120,EX,NCT01797120-0150,9,FULVESTRANT,500,mg,SOLUTION,ONCE,INTRAMUSCULAR,2022-09-22,2022-09-22,197,197,INDUCTION
NCT01797120,EX,NCT01797120-0150,10,FULVESTRANT,500,mg,SOLUTION,ONCE,INTRAMUSCULAR,2022-10-20,2022-10-20,225,225,INDUCTION
NCT01797120,EX,NCT01797120-0150,11,FULVESTRANT,500,mg,SOLUTION,ONCE,INTRAMUSCULAR,2022-11-17,2022-11-17,253,253,INDUCTION
NCT01797120,EX,NCT01797120-0150,12,FULVESTRANT,500,mg,SOLUTION,ONCE,INTRAMUSCULAR,2022-12-15,2022-12-15,281,281,INDUCTION
NCT01797120,EX,NCT01797120-0150,13,FULVESTRANT,500,mg,SOLUTION,ONCE,INTRAMUSCULAR,2023-01-12,2023-01-12,309,309,INDUCTION
NCT01797120,EX,NCT01797120-0150,14,FULVESTRANT,500,mg,SOLUTION,ONCE,INTRAMUSCULAR,2023-02-09,2023-02-09,337,337,INDUCTION
NCT01797120,EX,NCT01797120-0150,23,PLACEBO,0,mg,TABLET,QD,ORAL,2022-03-10,2023-02-10,1,338,INDUCTION
NCT01797120,EX,NCT01797120-0151,1,FULVESTRANT,250,mg,SOLUTION,ONCE,INTRAMUSCULAR,2021-08-08,2021-08-08,1,1,INDUCTION
NCT01797120,EX,NCT01797120-0151,2,FULVESTRANT,250,mg,SOLUTION,ONCE,INTRAMUSCULAR,2021-08-22,2021-08-22,15,15,INDUCTION
NCT01797120,EX,NCT01797120-0151,3,FULVESTRANT,500,mg,SOLUTION,ONCE,INTRAMUSCULAR,2021-09-05,2021-09-05,29,29,INDUCTION
NCT01797120,EX,NCT01797120-0151,4,FULVESTRANT,500,mg,SOLUTION,ONCE,INTRAMUSCULAR,2021-10-03,2021-10-03,57,57,INDUCTION
NCT01797120,EX,NCT01797120-0151,5,FULVESTRANT,500,mg,SOLUTION,ONCE,INTRAMUSCULAR,2021-10-31,2021-10-31,85,85,INDUCTION
NCT01797120,EX,NCT01797120-0151,6,FULVESTRANT,500,mg,SOLUTION,ONCE,INTRAMUSCULAR,2021-11-28,2021-11-28,113,113,INDUCTION
NCT01797120,EX,NCT01797120-0151,7,FULVESTRANT,500,mg,SOLUTION,ONCE,INTRAMUSCULAR,2021-12-26,2021-12-26,141,141,INDUCTION
NCT01797120,EX,NCT01797120-0151,8,FULVESTRANT,500,mg,SOLUTION,ONCE,INTRAMUSCULAR,2022-01-23,2022-01-23,169,169,INDUCTION
NCT01797120,EX,NCT01797120-0151,9,FULVESTRANT,500,mg,SOLUTION,ONCE,INTRAMUSCULAR,2022-02-20,2022-02-20,197,197,INDUCTION
NCT01797120,EX,NCT01797120-0151,10,FULVESTRANT,500,mg,SOLUTION,ONCE,INTRAMUSCULAR,2022-03-20,2022-03-20,225,225,INDUCTION
NCT01797120,EX,NCT01797120-0151,11,FULVESTRANT,500,mg,SOLUTION,ONCE,INTRAMUSCULAR,2022-04-17,2022-04-17,253,253,INDUCTION
NCT01797120,EX,NCT01797120-0151,12,FULVESTRANT,500,mg,SOLUTION,ONCE,INTRAMUSCULAR,2022-05-15,2022-05-15,281,281,INDUCTION
NCT01797120,EX,NCT01797120-0151,13,FULVESTRANT,500,mg,SOLUTION,ONCE,INTRAMUSCULAR,2022-06-12,2022-06-12,309,309,INDUCTION
NCT01797120,EX,NCT01797120-0151,14,FULVESTRANT,500,mg,SOLUTION,ONCE,INTRAMUSCULAR,2022-07-10,2022-07-10,337,337,INDUCTION
NCT01797120,EX,NCT01797120-0151,15,PLACEBO,0,mg,TABLET,QD,ORAL,2021-08-08,2022-12-26,1,506,INDUCTION
NCT01797120,EX,NCT01797120-0152,1,FULVESTRANT,250,mg,SOLUTION,ONCE,INTRAMUSCULAR,2022-01-09,2022-01-09,1,1,INDUCTION
NCT01797120,EX,NCT01797120-0152,2,FULVESTRANT,250,mg,SOLUTION,ONCE,INTRAMUSCULAR,2022-01-23,2022-01-23,15,15,INDUCTION
NCT01797120,EX,NCT01797120-0152,3,FULVESTRANT,500,mg,SOLUTION,ONCE,INTRAMUSCULAR,2022-02-06,2022-02-06,29,29,INDUCTION
NCT01797120,EX,NCT01797120-0152,4,FULVESTRANT,500,mg,SOLUTION,ONCE,INTRAMUSCULAR,2022-03-06,2022-03-06,57,57,INDUCTION
NCT01797120,EX,NCT01797120-0152,5,PLACEBO,0,mg,TABLET,QD,ORAL,2022-01-09,2022-06-27,1,170,INDUCTION
NCT01797120,EX,NCT01797120-0153,1,FULVESTRANT,250,mg,SOLUTION,ONCE,INTRAMUSCULAR,2021-10-18,2021-10-18,1,1,INDUCTION
NCT01797120,EX,NCT01797120-0153,2,FULVESTRANT,250,mg,SOLUTION,ONCE,INTRAMUSCULAR,2021-11-01,2021-11-01,15,15,INDUCTION
NCT01797120,EX,NCT01797120-0153,3,FULVESTRANT,500,mg,SOLUTION,ONCE,INTRAMUSCULAR,2021-11-15,2021-11-15,29,29,INDUCTION
NCT01797120,EX,NCT01797120-0153,4,FULVESTRANT,500,mg,SOLUTION,ONCE,INTRAMUSCULAR,2021-12-13,2021-12-13,57,57,INDUCTION
NCT01797120,EX,NCT01797120-0153,5,FULVESTRANT,500,mg,SOLUTION,ONCE,INTRAMUSCULAR,2022-01-10,2022-01-10,85,85,INDUCTION
NCT01797120,EX,NCT01797120-0153,6,FULVESTRANT,500,mg,SOLUTION,ONCE,INTRAMUSCULAR,2022-02-07,2022-02-07,113,113,INDUCTION
NCT01797120,EX,NCT01797120-0153,7,FULVESTRANT,500,mg,SOLUTION,ONCE,INTRAMUSCULAR,2022-03-07,2022-03-07,141,141,INDUCTION
NCT01797120,EX,NCT01797120-0153,8,FULVESTRANT,500,mg,SOLUTION,ONCE,INTRAMUSCULAR,2022-04-04,2022-04-04,169,169,INDUCTION
NCT01797120,EX,NCT01797120-0153,15,EVEROLIMUS,10,mg,TABLET,QD,ORAL,2021-10-18,2022-04-05,1,170,INDUCTION
NCT01797120,EX,NCT01797120-0154,1,FULVESTRANT,250,mg,SOLUTION,ONCE,INTRAMUSCULAR,2022-07-18,2022-07-18,1,1,INDUCTION
NCT01797120,EX,NCT01797120-0154,2,FULVESTRANT,250,mg,SOLUTION,ONCE,INTRAMUSCULAR,2022-08-01,2022-08-01,15,15,INDUCTION
NCT01797120,EX,NCT01797120-0154,3,FULVESTRANT,500,mg,SOLUTION,ONCE,INTRAMUSCULAR,2022-08-15,2022-08-15,29,29,INDUCTION
NCT01797120,EX,NCT01797120-0154,4,FULVESTRANT,500,mg,SOLUTION,ONCE,INTRAMUSCULAR,2022-09-12,2022-09-12,57,57,INDUCTION
NCT01797120,EX,NCT01797120-0154,5,FULVESTRANT,500,mg,SOLUTION,ONCE,INTRAMUSCULAR,2022-10-10,2022-10-10,85,85,INDUCTION
NCT01797120,EX,NCT01797120-0154,6,FULVESTRANT,500,mg,SOLUTION,ONCE,INTRAMUSCULAR,2022-11-07,2022-11-07,113,113,INDUCTION
NCT01797120,EX,NCT01797120-0154,7,FULVESTRANT,500,mg,SOLUTION,ONCE,INTRAMUSCULAR,2022-12-05,2022-12-05,141,141,INDUCTION
NCT01797120,EX,NCT01797120-0154,8,FULVESTRANT,500,mg,SOLUTION,ONCE,INTRAMUSCULAR,2023-01-02,2023-01-02,169,169,INDUCTION
NCT01797120,EX,NCT01797120-0154,9,FULVESTRANT,500,mg,SOLUTION,ONCE,INTRAMUSCULAR,2023-01-30,2023-01-30,197,197,INDUCTION
NCT01797120,EX,NCT01797120-0154,10,FULVESTRANT,500,mg,SOLUTION,ONCE,INTRAMUSCULAR,2023-02-27,2023-02-27,225,225,INDUCTION
NCT01797120,EX,NCT01797120-0154,11,FULVESTRANT,500,mg,SOLUTION,ONCE,INTRAMUSCULAR,2023-03-27,2023-03-27,253,253,INDUCTION
NCT01797120,EX,NCT01797120-0154,12,EVEROLIMUS,10,mg,TABLET,QD,ORAL,2022-07-18,2023-06-20,1,338,INDUCTION
NCT01797120,EX,NCT01797120-0155,1,FULVESTRANT,250,mg,SOLUTION,ONCE,INTRAMUSCULAR,2022-11-02,2022-11-02,1,1,INDUCTION
NCT01797120,EX,NCT01797120-0155,2,FULVESTRANT,250,mg,SOLUTION,ONCE,INTRAMUSCULAR,2022-11-16,2022-11-16,15,15,INDUCTION
NCT01797120,EX,NCT01797120-0155,3,FULVESTRANT,500,mg,SOLUTION,ONCE,INTRAMUSCULAR,2022-11-30,2022-11-30,29,29,INDUCTION
NCT01797120,EX,NCT01797120-0155,4,FULVESTRANT,500,mg,SOLUTION,ONCE,INTRAMUSCULAR,2022-12-28,2022-12-28,57,57,INDUCTION
NCT01797120,EX,NCT01797120-0155,5,FULVESTRANT,500,mg,SOLUTION,ONCE,INTRAMUSCULAR,2023-01-25,2023-01-25,85,85,INDUCTION
NCT01797120,EX,NCT01797120-0155,6,FULVESTRANT,500,mg,SOLUTION,ONCE,INTRAMUSCULAR,2023-02-22,2023-02-22,113,113,INDUCTION
NCT01797120,EX,NCT01797120-0155,7,FULVESTRANT,500,mg,SOLUTION,ONCE,INTRAMUSCULAR,2023-03-22,2023-03-22,141,141,INDUCTION
NCT01797120,EX,NCT01797120-0155,8,FULVESTRANT,500,mg,SOLUTION,ONCE,INTRAMUSCULAR,2023-04-19,2023-04-19,169,169,INDUCTION
NCT01797120,EX,NCT01797120-0155,24,PLACEBO,0,mg,TABLET,QD,ORAL,2022-11-02,2023-04-20,1,170,INDUCTION
NCT01797120,EX,NCT01797120-0156,1,FULVESTRANT,250,mg,SOLUTION,ONCE,INTRAMUSCULAR,2022-03-14,2022-03-14,1,1,INDUCTION
NCT01797120,EX,NCT01797120-0156,2,FULVESTRANT,250,mg,SOLUTION,ONCE,INTRAMUSCULAR,2022-03-28,2022-03-28,15,15,INDUCTION
NCT01797120,EX,NCT01797120-0156,3,FULVESTRANT,500,mg,SOLUTION,ONCE,INTRAMUSCULAR,2022-04-11,2022-04-11,29,29,INDUCTION
NCT01797120,EX,NCT01797120-0156,4,FULVESTRANT,500,mg,SOLUTION,ONCE,INTRAMUSCULAR,2022-05-09,2022-05-09,57,57,INDUCTION
NCT01797120,EX,NCT01797120-0156,5,FULVESTRANT,500,mg,SOLUTION,ONCE,INTRAMUSCULAR,2022-06-06,2022-06-06,85,85,INDUCTION
NCT01797120,EX,NCT01797120-0156,6,FULVESTRANT,500,mg,SOLUTION,ONCE,INTRAMUSCULAR,2022-07-04,2022-07-04,113,113,INDUCTION
NCT01797120,EX,NCT01797120-0156,7,FULVESTRANT,500,mg,SOLUTION,ONCE,INTRAMUSCULAR,2022-08-01,2022-08-01,141,141,INDUCTION
NCT01797120,EX,NCT01797120-0156,8,FULVESTRANT,500,mg,SOLUTION,ONCE,INTRAMUSCULAR,2022-08-29,2022-08-29,169,169,INDUCTION
NCT01797120,EX,NCT01797120-0156,9,FULVESTRANT,500,mg,SOLUTION,ONCE,INTRAMUSCULAR,2022-09-26,2022-09-26,197,197,INDUCTION
NCT01797120,EX,NCT01797120-0156,10,EVEROLIMUS,10,mg,TABLET,QD,ORAL,2022-03-14,2022-09-30,1,201,INDUCTION
NCT01797120,EX,NCT01797120-0157,1,FULVESTRANT,250,mg,SOLUTION,ONCE,INTRAMUSCULAR,2022-05-24,2022-05-24,1,1,INDUCTION
NCT01797120,EX,NCT01797120-0157,2,FULVESTRANT,250,mg,SOLUTION,ONCE,INTRAMUSCULAR,2022-06-07,2022-06-07,15,15,INDUCTION
NCT01797120,EX,NCT01797120-0157,3,FULVESTRANT,500,mg,SOLUTION,ONCE,INTRAMUSCULAR,2022-06-21,2022-06-21,29,29,INDUCTION
NCT01797120,EX,NCT01797120-0157,4,FULVESTRANT,500,mg,SOLUTION,ONCE,INTRAMUSCULAR,2022-07-19,2022-07-19,57,57,INDUCTION
NCT01797120,EX,NCT01797120-0157,5,FULVESTRANT,500,mg,SOLUTION,ONCE,INTRAMUSCULAR,2022-08-16,2022-08-16,85,85,INDUCTION
NCT01797120,EX,NCT01797120-0157,6,FULVESTRANT,500,mg,SOLUTION,ONCE,INTRAMUSCULAR,2022-09-13,2022-09-13,113,113,INDUCTION
NCT01797120,EX,NCT01797120-0157,7,FULVESTRANT,500,mg,SOLUTION,ONCE,INTRAMUSCULAR,2022-10-11,2022-10-11,141,141,INDUCTION
NCT01797120,EX,NCT01797120-0157,8,FULVESTRANT,500,mg,SOLUTION,ONCE,INTRAMUSCULAR,2022-11-08,2022-11-08,169,169,INDUCTION
NCT01797120,EX,NCT01797120-0157,9,FULVESTRANT,500,mg,SOLUTION,ONCE,INTRAMUSCULAR,2022-12-06,2022-12-06,197,197,INDUCTION
NCT01797120,EX,NCT01797120-0157,10,FULVESTRANT,500,mg,SOLUTION,ONCE,INTRAMUSCULAR,2023-01-03,2023-01-03,225,225,INDUCTION
NCT01797120,EX,NCT01797120-0157,11,FULVESTRANT,500,mg,SOLUTION,ONCE,INTRAMUSCULAR,2023-01-31,2023-01-31,253,253,INDUCTION
NCT01797120,EX,NCT01797120-0157,12,FULVESTRANT,500,mg,SOLUTION,ONCE,INTRAMUSCULAR,2023-02-28,2023-02-28,281,281,INDUCTION
NCT01797120,EX,NCT01797120-0157,13,PLACEBO,0,mg,TABLET,QD,ORAL,2022-05-24,2023-10-11,1,506,INDUCTION
NCT01797120,EX,NCT01797120-0158,1,FULVESTRANT,250,mg,SOLUTION,ONCE,INTRAMUSCULAR,2022-03-26,2022-03-26,1,1,INDUCTION
NCT01797120,EX,NCT01797120-0158,2,FULVESTRANT,250,mg,SOLUTION,ONCE,INTRAMUSCULAR,2022-04-09,2022-04-09,15,15,INDUCTION
NCT01797120,EX,NCT01797120-0158,3,FULVESTRANT,500,mg,SOLUTION,ONCE,INTRAMUSCULAR,2022-04-23,2022-04-23,29,29,INDUCTION
NCT01797120,EX,NCT01797120-0158,4,FULVESTRANT,500,mg,SOLUTION,ONCE,INTRAMUSCULAR,2022-05-21,2022-05-21,57,57,INDUCTION
NCT01797120,EX,NCT01797120-0158,5,FULVESTRANT,500,mg,SOLUTION,ONCE,INTRAMUSCULAR,2022-06-18,2022-06-18,85,85,INDUCTION
NCT01797120,EX,NCT01797120-0158,6,PLACEBO,0,mg,TABLET,QD,ORAL,2022-03-26,2023-02-26,1,338,INDUCTION
NCT01797120,EX,NCT01797120-0159,1,FULVESTRANT,250,mg,SOLUTION,ONCE,INTRAMUSCULAR,2021-11-23,2021-11-23,1,1,INDUCTION
NCT01797120,EX,NCT01797120-0159,2,FULVESTRANT,250,mg,SOLUTION,ONCE,INTRAMUSCULAR,2021-12-07,2021-12-07,15,15,INDUCTION
NCT01797120,EX,NCT01797120-0159,3,FULVESTRANT,500,mg,SOLUTION,ONCE,INTRAMUSCULAR,2021-12-21,2021-12-21,29,29,INDUCTION
NCT01797120,EX,NCT01797120-0159,4,FULVESTRANT,500,mg,SOLUTION,ONCE,INTRAMUSCULAR,2022-01-18,2022-01-18,57,57,INDUCTION
NCT01797120,EX,NCT01797120-0159,5,FULVESTRANT,500,mg,SOLUTION,ONCE,INTRAMUSCULAR,2022-02-15,2022-02-15,85,85,INDUCTION
NCT01797120,EX,NCT01797120-0159,6,FULVESTRANT,500,mg,SOLUTION,ONCE,INTRAMUSCULAR,2022-03-15,2022-03-15,113,113,INDUCTION
NCT01797120,EX,NCT01797120-0159,7,FULVESTRANT,500,mg,SOLUTION,ONCE,INTRAMUSCULAR,2022-04-12,2022-04-12,141,141,INDUCTION
NCT01797120,EX,NCT01797120-0159,8,FULVESTRANT,500,mg,SOLUTION,ONCE,INTRAMUSCULAR,2022-05-10,2022-05-10,169,169,INDUCTION
NCT01797120,EX,NCT01797120-0159,9,FULVESTRANT,500,mg,SOLUTION,ONCE,INTRAMUSCULAR,2022-06-07,2022-06-07,197,197,INDUCTION
NCT01797120,EX,NCT01797120-0159,10,FULVESTRANT,500,mg,SOLUTION,ONCE,INTRAMUSCULAR,2022-07-05,2022-07-05,225,225,INDUCTION
NCT01797120,EX,NCT01797120-0159,11,FULVESTRANT,500,mg,SOLUTION,ONCE,INTRAMUSCULAR,2022-08-02,2022-08-02,253,253,INDUCTION
NCT01797120,EX,NCT01797120-0159,22,EVEROLIMUS,10,mg,TABLET,QD,ORAL,2021-11-23,2022-08-03,1,254,INDUCTION
NCT01797120,EX,NCT01797120-0160,1,FULVESTRANT,250,mg,SOLUTION,ONCE,INTRAMUSCULAR,2022-05-06,2022-05-06,1,1,INDUCTION
NCT01797120,EX,NCT01797120-0160,2,FULVESTRANT,250,mg,SOLUTION,ONCE,INTRAMUSCULAR,2022-05-20,2022-05-20,15,15,INDUCTION
NCT01797120,EX,NCT01797120-0160,3,FULVESTRANT,500,mg,SOLUTION,ONCE,INTRAMUSCULAR,2022-06-03,2022-06-03,29,29,INDUCTION
NCT01797120,EX,NCT01797120-0160,4,FULVESTRANT,500,mg,SOLUTION,ONCE,INTRAMUSCULAR,2022-07-01,2022-07-01,57,57,INDUCTION
NCT01797120,EX,NCT01797120-0160,5,EVEROLIMUS,10,mg,TABLET,QD,ORAL,2022-05-06,2022-10-22,1,170,INDUCTION
NCT01797120,EX,NCT01797120-0161,1,FULVESTRANT,250,mg,SOLUTION,ONCE,INTRAMUSCULAR,2021-02-23,2021-02-23,1,1,INDUCTION
NCT01797120,EX,NCT01797120-0161,2,FULVESTRANT,250,mg,SOLUTION,ONCE,INTRAMUSCULAR,2021-03-09,2021-03-09,15,15,INDUCTION
NCT01797120,EX,NCT01797120-0161,3,FULVESTRANT,500,mg,SOLUTION,ONCE,INTRAMUSCULAR,2021-03-23,2021-03-23,29,29,INDUCTION
NCT01797120,EX,NCT01797120-0161,4,FULVESTRANT,500,mg,SOLUTION,ONCE,INTRAMUSCULAR,2021-04-20,2021-04-20,57,57,INDUCTION
NCT01797120,EX,NCT01797120-0161,5,FULVESTRANT,500,mg,SOLUTION,ONCE,INTRAMUSCULAR,2021-05-18,2021-05-18,85,85,INDUCTION
NCT01797120,EX,NCT01797120-0161,6,FULVESTRANT,500,mg,SOLUTION,ONCE,INTRAMUSCULAR,2021-06-15,2021-06-15,113,113,INDUCTION
NCT01797120,EX,NCT01797120-0161,7,FULVESTRANT,500,mg,SOLUTION,ONCE,INTRAMUSCULAR,2021-07-13,2021-07-13,141,141,INDUCTION
NCT01797120,EX,NCT01797120-0161,8,FULVESTRANT,500,mg,SOLUTION,ONCE,INTRAMUSCULAR,2021-08-10,2021-08-10,169,169,INDUCTION
NCT01797120,EX,NCT01797120-0161,20,PLACEBO,0,mg,TABLET,QD,ORAL,2021-02-23,2021-08-11,1,170,INDUCTION
NCT01797120,EX,NCT01797120-0162,1,FULVESTRANT,250,mg,SOLUTION,ONCE,INTRAMUSCULAR,2021-04-05,2021-04-05,1,1,INDUCTION
NCT01797120,EX,NCT01797120-0162,2,FULVESTRANT,250,mg,SOLUTION,ONCE,INTRAMUSCULAR,2021-04-19,2021-04-19,15,15,INDUCTION
NCT01797120,EX,NCT01797120-0162,3,FULVESTRANT,500,mg,SOLUTION,ONCE,INTRAMUSCULAR,2021-05-03,2021-05-03,29,29,INDUCTION
NCT01797120,EX,NCT01797120-0162,4,FULVESTRANT,500,mg,SOLUTION,ONCE,INTRAMUSCULAR,2021-05-31,2021-05-31,57,57,INDUCTION
NCT01797120,EX,NCT01797120-0162,5,FULVESTRANT,500,mg,SOLUTION,ONCE,INTRAMUSCULAR,2021-06-28,2021-06-28,85,85,INDUCTION
NCT01797120,EX,NCT01797120-0162,6,FULVESTRANT,500,mg,SOLUTION,ONCE,INTRAMUSCULAR,2021-07-26,2021-07-26,113,113,INDUCTION
NCT01797120,EX,NCT01797120-0162,7,FULVESTRANT,500,mg,SOLUTION,ONCE,INTRAMUSCULAR,2021-08-23,2021-08-23,141,141,INDUCTION
NCT01797120,EX,NCT01797120-0162,8,FULVESTRANT,500,mg,SOLUTION,ONCE,INTRAMUSCULAR,2021-09-20,2021-09-20,169,169,INDUCTION
NCT01797120,EX,NCT01797120-0162,9,FULVESTRANT,500,mg,SOLUTION,ONCE,INTRAMUSCULAR,2021-10-18,2021-10-18,197,197,INDUCTION
NCT01797120,EX,NCT01797120-0162,10,PLACEBO,0,mg,TABLET,QD,ORAL,2021-04-05,2021-11-01,1,211,INDUCTION
NCT01797120,EX,NCT01797120-0163,1,FULVESTRANT,250,mg,SOLUTION,ONCE,INTRAMUSCULAR,2021-03-01,2021-03-01,1,1,INDUCTION
NCT01797120,EX,NCT01797120-0163,2,FULVESTRANT,250,mg,SOLUTION,ONCE,INTRAMUSCULAR,2021-03-15,2021-03-15,15,15,INDUCTION
NCT01797120,EX,NCT01797120-0163,3,FULVESTRANT,500,mg,SOLUTION,ONCE,INTRAMUSCULAR,2021-03-29,2021-03-29,29,29,INDUCTION
NCT01797120,EX,NCT01797120-0163,4,FULVESTRANT,500,mg,SOLUTION,ONCE,INTRAMUSCULAR,2021-04-26,2021-04-26,57,57,INDUCTION
NCT01797120,EX,NCT01797120-0163,5,FULVESTRANT,500,mg,SOLUTION,ONCE,INTRAMUSCULAR,2021-05-24,2021-05-24,85,85,INDUCTION
NCT01797120,EX,NCT01797120-0163,7,EVEROLIMUS,10,mg,TABLET,QD,ORAL,2021-03-01,2021-05-25,1,86,INDUCTION
NCT01797120,EX,NCT01797120-0164,1,FULVESTRANT,250,mg,SOLUTION,ONCE,INTRAMUSCULAR,2021-12-03,2021-12-03,1,1,INDUCTION
NCT01797120,EX,NCT01797120-0164,2,FULVESTRANT,250,mg,SOLUTION,ONCE,INTRAMUSCULAR,2021-12-17,2021-12-17,15,15,INDUCTION
NCT01797120,EX,NCT01797120-0164,3,FULVESTRANT,500,mg,SOLUTION,ONCE,INTRAMUSCULAR,2021-12-31,2021-12-31,29,29,INDUCTION
NCT01797120,EX,NCT01797120-0164,4,FULVESTRANT,500,mg,SOLUTION,ONCE,INTRAMUSCULAR,2022-01-28,2022-01-28,57,57,INDUCTION
NCT01797120,EX,NCT01797120-0164,5,FULVESTRANT,500,mg,SOLUTION,ONCE,INTRAMUSCULAR,2022-02-25,2022-02-25,85,85,INDUCTION
NCT01797120,EX,NCT01797120-0164,18,PLACEBO,0,mg,TABLET,QD,ORAL,2021-12-03,2022-02-26,1,86,INDUCTION
NCT01797120,EX,NCT01797120-0165,1,FULVESTRANT,250,mg,SOLUTION,ONCE,INTRAMUSCULAR,2022-10-29,2022-10-29,1,1,INDUCTION
NCT01797120,EX,NCT01797120-0165,2,FULVESTRANT,250,mg,SOLUTION,ONCE,INTRAMUSCULAR,2022-11-12,2022-11-12,15,15,INDUCTION
NCT01797120,EX,NCT01797120-0165,3,FULVESTRANT,500,mg,SOLUTION,ONCE,INTRAMUSCULAR,2022-11-26,2022-11-26,29,29,INDUCTION
NCT01797120,EX,NCT01797120-0165,4,FULVESTRANT,500,mg,SOLUTION,ONCE,INTRAMUSCULAR,2022-12-24,2022-12-24,57,57,INDUCTION
NCT01797120,EX,NCT01797120-0165,5,FULVESTRANT,500,mg,SOLUTION,ONCE,INTRAMUSCULAR,2023-01-21,2023-01-21,85,85,INDUCTION
NCT01797120,EX,NCT01797120-0165,6,FULVESTRANT,500,mg,SOLUTION,ONCE,INTRAMUSCULAR,2023-02-18,2023-02-18,113,113,INDUCTION
NCT01797120,EX,NCT01797120-0165,7,FULVESTRANT,500,mg,SOLUTION,ONCE,INTRAMUSCULAR,2023-03-18,2023-03-18,141,141,INDUCTION
NCT01797120,EX,NCT01797120-0165,8,FULVESTRANT,500,mg,SOLUTION,ONCE,INTRAMUSCULAR,2023-04-15,2023-04-15,169,169,INDUCTION
NCT01797120,EX,NCT01797120-0165,17,PLACEBO,0,mg,TABLET,QD,ORAL,2022-10-29,2023-04-16,1,170,INDUCTION
NCT01797120,EX,NCT01797120-0166,1,FULVESTRANT,250,mg,SOLUTION,ONCE,INTRAMUSCULAR,2022-09-29,2022-09-29,1,1,INDUCTION
NCT01797120,EX,NCT01797120-0166,2,FULVESTRANT,250,mg,SOLUTION,ONCE,INTRAMUSCULAR,2022-10-13,2022-10-13,15,15,INDUCTION
NCT01797120,EX,NCT01797120-0166,3,FULVESTRANT,500,mg,SOLUTION,ONCE,INTRAMUSCULAR,2022-10-27,2022-10-27,29,29,INDUCTION
NCT01797120,EX,NCT01797120-0166,4,FULVESTRANT,500,mg,SOLUTION,ONCE,INTRAMUSCULAR,2022-11-24,2022-11-24,57,57,INDUCTION
NCT01797120,EX,NCT01797120-0166,5,PLACEBO,0,mg,TABLET,QD,ORAL,2022-09-29,2023-03-17,1,170,INDUCTION
NCT01797120,EX,NCT01797120-0167,1,FULVESTRANT,250,mg,SOLUTION,ONCE,INTRAMUSCULAR,2021-06-13,2021-06-13,1,1,INDUCTION
NCT01797120,EX,NCT01797120-0167,2,FULVESTRANT,250,mg,SOLUTION,ONCE,INTRAMUSCULAR,2021-06-27,2021-06-27,15,15,INDUCTION
NCT01797120,EX,NCT01797120-0167,3,FULVESTRANT,500,mg,SOLUTION,ONCE,INTRAMUSCULAR,2021-07-11,2021-07-11,29,29,INDUCTION
NCT01797120,EX,NCT01797120-0167,4,FULVESTRANT,500,mg,SOLUTION,ONCE,INTRAMUSCULAR,2021-08-08,2021-08-08,57,57,INDUCTION
NCT01797120,EX,NCT01797120-0167,5,FULVESTRANT,500,mg,SOLUTION,ONCE,INTRAMUSCULAR,2021-09-05,2021-09-05,85,85,INDUCTION
NCT01797120,EX,NCT01797120-0167,6,FULVESTRANT,500,mg,SOLUTION,ONCE,INTRAMUSCULAR,2021-10-03,2021-10-03,113,113,INDUCTION
NCT01797120,EX,NCT01797120-0167,7,FULVESTRANT,500,mg,SOLUTION,ONCE,INTRAMUSCULAR,2021-10-31,2021-10-31,141,141,INDUCTION
NCT01797120,EX,NCT01797120-0167,8,FULVESTRANT,500,mg,SOLUTION,ONCE,INTRAMUSCULAR,2021-11-28,2021-11-28,169,169,INDUCTION
NCT01797120,EX,NCT01797120-0167,9,FULVESTRANT,500,mg,SOLUTION,ONCE,INTRAMUSCULAR,2021-12-26,2021-12-26,197,197,INDUCTION
NCT01797120,EX,NCT01797120-0167,10,FULVESTRANT,500,mg,SOLUTION,ONCE,INTRAMUSCULAR,2022-01-23,2022-01-23,225,225,INDUCTION
NCT01797120,EX,NCT01797120-0167,11,FULVESTRANT,500,mg,SOLUTION,ONCE,INTRAMUSCULAR,2022-02-20,2022-02-20,253,253,INDUCTION
NCT01797120,EX,NCT01797120-0167,12,EVEROLIMUS,10,mg,TABLET,QD,ORAL,2021-06-13,2022-05-16,1,338,INDUCTION
NCT01797120,EX,NCT01797120-0168,1,FULVESTRANT,250,mg,SOLUTION,ONCE,INTRAMUSCULAR,2022-07-25,2022-07-25,1,1,INDUCTION
NCT01797120,EX,NCT01797120-0168,2,FULVESTRANT,250,mg,SOLUTION,ONCE,INTRAMUSCULAR,2022-08-08,2022-08-08,15,15,INDUCTION
NCT01797120,EX,NCT01797120-0168,3,FULVESTRANT,500,mg,SOLUTION,ONCE,INTRAMUSCULAR,2022-08-22,2022-08-22,29,29,INDUCTION
NCT01797120,EX,NCT01797120-0168,4,FULVESTRANT,500,mg,SOLUTION,ONCE,INTRAMUSCULAR,2022-09-19,2022-09-19,57,57,INDUCTION
NCT01797120,EX,NCT01797120-0168,5,FULVESTRANT,500,mg,SOLUTION,ONCE,INTRAMUSCULAR,2022-10-17,2022-10-17,85,85,INDUCTION
NCT01797120,EX,NCT01797120-0168,6,FULVESTRANT,500,mg,SOLUTION,ONCE,INTRAMUSCULAR,2022-11-14,2022-11-14,113,113,INDUCTION
NCT01797120,EX,NCT01797120-0168,7,FULVESTRANT,500,mg,SOLUTION,ONCE,INTRAMUSCULAR,2022-12-12,2022-12-12,141,141,INDUCTION
NCT01797120,EX,NCT01797120-0168,8,FULVESTRANT,500,mg,SOLUTION,ONCE,INTRAMUSCULAR,2023-01-09,2023-01-09,169,169,INDUCTION
NCT01797120,EX,NCT01797120-0168,15,PLACEBO,0,mg,TABLET,QD,ORAL,2022-07-25,2023-01-10,1,170,INDUCTION
NCT01797120,EX,NCT01797120-0169,1,FULVESTRANT,250,mg,SOLUTION,ONCE,INTRAMUSCULAR,2021-04-17,2021-04-17,1,1,INDUCTION
NCT01797120,EX,NCT01797120-0169,2,FULVESTRANT,250,mg,SOLUTION,ONCE,INTRAMUSCULAR,2021-05-01,2021-05-01,15,15,INDUCTION
NCT01797120,EX,NCT01797120-0169,3,FULVESTRANT,500,mg,SOLUTION,ONCE,INTRAMUSCULAR,2021-05-15,2021-05-15,29,29,INDUCTION
NCT01797120,EX,NCT01797120-0169,4,FULVESTRANT,500,mg,SOLUTION,ONCE,INTRAMUSCULAR,2021-06-12,2021-06-12,57,57,INDUCTION
NCT01797120,EX,NCT01797120-0169,5,FULVESTRANT,500,mg,SOLUTION,ONCE,INTRAMUSCULAR,2021-07-10,2021-07-10,85,85,INDUCTION
NCT01797120,EX,NCT01797120-0169,12,PLACEBO,0,mg,TABLET,QD,ORAL,2021-04-17,2021-07-11,1,86,INDUCTION
NCT01797120,EX,NCT01797120-0170,1,FULVESTRANT,250,mg,SOLUTION,ONCE,INTRAMUSCULAR,2021-07-21,2021-07-21,1,1,INDUCTION
NCT01797120,EX,NCT01797120-0170,2,FULVESTRANT,250,mg,SOLUTION,ONCE,INTRAMUSCULAR,2021-08-04,2021-08-04,15,15,INDUCTION
NCT01797120,EX,NCT01797120-0170,3,FULVESTRANT,500,mg,SOLUTION,ONCE,INTRAMUSCULAR,2021-08-18,2021-08-18,29,29,INDUCTION
NCT01797120,EX,NCT01797120-0170,4,FULVESTRANT,500,mg,SOLUTION,ONCE,INTRAMUSCULAR,2021-09-15,2021-09-15,57,57,INDUCTION
NCT01797120,EX,NCT01797120-0170,5,FULVESTRANT,500,mg,SOLUTION,ONCE,INTRAMUSCULAR,2021-10-13,2021-10-13,85,85,INDUCTION
NCT01797120,EX,NCT01797120-0170,17,PLACEBO,0,mg,TABLET,QD,ORAL,2021-07-21,2021-10-14,1,86,INDUCTION
NCT01797120,EX,NCT01797120-0171,1,FULVESTRANT,250,mg,SOLUTION,ONCE,INTRAMUSCULAR,2021-10-28,2021-10-28,1,1,INDUCTION
NCT01797120,EX,NCT01797120-0171,2,FULVESTRANT,250,mg,SOLUTION,ONCE,INTRAMUSCULAR,2021-11-11,2021-11-11,15,15,INDUCTION
NCT01797120,EX,NCT01797120-0171,3,FULVESTRANT,500,mg,SOLUTION,ONCE,INTRAMUSCULAR,2021-11-25,2021-11-25,29,29,INDUCTION
NCT01797120,EX,NCT01797120-0171,4,FULVESTRANT,500,mg,SOLUTION,ONCE,INTRAMUSCULAR,2021-12-23,2021-12-23,57,57,INDUCTION
NCT01797120,EX,NCT01797120-0171,5,FULVESTRANT,500,mg,SOLUTION,ONCE,INTRAMUSCULAR,2022-01-20,2022-01-20,85,85,INDUCTION
NCT01797120,EX,NCT01797120-0171,6,FULVESTRANT,500,mg,SOLUTION,ONCE,INTRAMUSCULAR,2022-02-17,2022-02-17,113,113,INDUCTION
NCT01797120,EX,NCT01797120-0171,7,FULVESTRANT,500,mg,SOLUTION,ONCE,INTRAMUSCULAR,2022-03-17,2022-03-17,141,141,INDUCTION
NCT01797120,EX,NCT01797120-0171,8,FULVESTRANT,500,mg,SOLUTION,ONCE,INTRAMUSCULAR,2022-04-14,2022-04-14,169,169,INDUCTION
NCT01797120,EX,NCT01797120-0171,9,FULVESTRANT,500,mg,SOLUTION,ONCE,INTRAMUSCULAR,2022-05-12,2022-05-12,197,197,INDUCTION
NCT01797120,EX,NCT01797120-0171,10,FULVESTRANT,500,mg,SOLUTION,ONCE,INTRAMUSCULAR,2022-06-09,2022-06-09,225,225,INDUCTION
NCT01797120,EX,NCT01797120-0171,11,FULVESTRANT,500,mg,SOLUTION,ONCE,INTRAMUSCULAR,2022-07-07,2022-07-07,253,253,INDUCTION
NCT01797120,EX,NCT01797120-0171,12,FULVESTRANT,500,mg,SOLUTION,ONCE,INTRAMUSCULAR,2022-08-04,2022-08-04,281,281,INDUCTION
NCT01797120,EX,NCT01797120-0171,13,FULVESTRANT,500,mg,SOLUTION,ONCE,INTRAMUSCULAR,2022-09-01,2022-09-01,309,309,INDUCTION
NCT01797120,EX,NCT01797120-0171,14,EVEROLIMUS,10,mg,TABLET,QD,ORAL,2021-10-28,2022-12-23,1,422,INDUCTION
NCT01797120,EX,NCT01797120-0172,1,FULVESTRANT,250,mg,SOLUTION,ONCE,INTRAMUSCULAR,2022-07-05,2022-07-05,1,1,INDUCTION
NCT01797120,EX,NCT01797120-0172,2,FULVESTRANT,250,mg,SOLUTION,ONCE,INTRAMUSCULAR,2022-07-19,2022-07-19,15,15,INDUCTION
NCT01797120,EX,NCT01797120-0172,3,FULVESTRANT,500,mg,SOLUTION,ONCE,INTRAMUSCULAR,2022-08-02,2022-08-02,29,29,INDUCTION
