STUDYID,DOMAIN,USUBJID,FASEQ,FATESTCD,FATEST,FAOBJ,FAORRES,FASTRESC,EPOCH,FADTC
NCT01797120,FA,NCT01797120-0001,1,OCCUR,Occurrence Indicator,INFORMED CONSENT OBTAINED,Y,Y,,2021-07-28
NCT01797120,FA,NCT01797120-0001,2,OCCUR,Occurrence Indicator,RANDOMIZED,Y,Y,,2021-08-05
NCT01797120,FA,NCT01797120-0001,3,OCCUR,Occurrence Indicator,LOST TO FOLLOW-UP,Y,Y,CONTINUATION,2023-02-07
NCT01797120,FA,NCT01797120-0001,4,OCCUR,Occurrence Indicator,LOST TO FOLLOW-UP,Y,Y,CONTINUATION,2023-02-07
NCT01797120,FA,NCT01797120-0001,5,OCCUR,Occurrence Indicator,LOST TO FOLLOW-UP,Y,Y,FOLLOW-UP,2023-05-05
NCT01797120,FA,NCT01797120-0002,6,OCCUR,Occurrence Indicator,INFORMED CONSENT OBTAINED,Y,Y,,2021-12-22
NCT01797120,FA,NCT01797120-0002,7,OCCUR,Occurrence Indicator,RANDOMIZED,Y,Y,,2022-01-17
NCT01797120,FA,NCT01797120-0002,8,OCCUR,Occurrence Indicator,ADVERSE EVENT,Y,Y,INDUCTION,2022-04-12
NCT01797120,FA,NCT01797120-0002,9,OCCUR,Occurrence Indicator,ADVERSE EVENT,Y,Y,INDUCTION,2022-04-12
NCT01797120,FA,NCT01797120-0002,10,OCCUR,Occurrence Indicator,DEATH,Y,Y,FOLLOW-UP,2022-12-05
NCT01797120,FA,NCT01797120-0003,11,OCCUR,Occurrence Indicator,INFORMED CONSENT OBTAINED,Y,Y,,2020-12-28
NCT01797120,FA,NCT01797120-0003,12,OCCUR,Occurrence Indicator,RANDOMIZED,Y,Y,,2021-01-25
NCT01797120,FA,NCT01797120-0003,13,OCCUR,Occurrence Indicator,PROGRESSIVE DISEASE,Y,Y,INDUCTION,2021-04-20
NCT01797120,FA,NCT01797120-0003,14,OCCUR,Occurrence Indicator,PROGRESSIVE DISEASE,Y,Y,INDUCTION,2021-04-20
NCT01797120,FA,NCT01797120-0003,15,OCCUR,Occurrence Indicator,LOST TO FOLLOW-UP,Y,Y,FOLLOW-UP,2021-08-09
NCT01797120,FA,NCT01797120-0004,16,OCCUR,Occurrence Indicator,INFORMED CONSENT OBTAINED,Y,Y,,2021-02-11
NCT01797120,FA,NCT01797120-0004,17,OCCUR,Occurrence Indicator,RANDOMIZED,Y,Y,,2021-03-09
NCT01797120,FA,NCT01797120-0004,18,OCCUR,Occurrence Indicator,PROGRESSIVE DISEASE,Y,Y,INDUCTION,2021-06-02
NCT01797120,FA,NCT01797120-0004,19,OCCUR,Occurrence Indicator,PROGRESSIVE DISEASE,Y,Y,INDUCTION,2021-06-02
NCT01797120,FA,NCT01797120-0004,20,OCCUR,Occurrence Indicator,LOST TO FOLLOW-UP,Y,Y,FOLLOW-UP,2021-08-13
NCT01797120,FA,NCT01797120-0005,21,OCCUR,Occurrence Indicator,INFORMED CONSENT OBTAINED,Y,Y,,2021-08-09
NCT01797120,FA,NCT01797120-0005,22,OCCUR,Occurrence Indicator,RANDOMIZED,Y,Y,,2021-08-23
NCT01797120,FA,NCT01797120-0005,23,OCCUR,Occurrence Indicator,PROGRESSIVE DISEASE,Y,Y,CONTINUATION,2022-10-18
NCT01797120,FA,NCT01797120-0005,24,OCCUR,Occurrence Indicator,PROGRESSIVE DISEASE,Y,Y,CONTINUATION,2022-10-18
NCT01797120,FA,NCT01797120-0005,25,OCCUR,Occurrence Indicator,DEATH,Y,Y,FOLLOW-UP,2023-01-13
NCT01797120,FA,NCT01797120-0006,26,OCCUR,Occurrence Indicator,INFORMED CONSENT OBTAINED,Y,Y,,2022-12-02
NCT01797120,FA,NCT01797120-0006,27,OCCUR,Occurrence Indicator,RANDOMIZED,Y,Y,,2022-12-18
NCT01797120,FA,NCT01797120-0006,28,OCCUR,Occurrence Indicator,PROGRESSIVE DISEASE,Y,Y,INDUCTION,2023-03-13
NCT01797120,FA,NCT01797120-0006,29,OCCUR,Occurrence Indicator,PROGRESSIVE DISEASE,Y,Y,INDUCTION,2023-03-13
NCT01797120,FA,NCT01797120-0006,30,OCCUR,Occurrence Indicator,LOST TO FOLLOW-UP,Y,Y,FOLLOW-UP,2023-08-04
NCT01797120,FA,NCT01797120-0007,31,OCCUR,Occurrence Indicator,INFORMED CONSENT OBTAINED,Y,Y,,2021-09-25
NCT01797120,FA,NCT01797120-0007,32,OCCUR,Occurrence Indicator,RANDOMIZED,Y,Y,,2021-10-19
NCT01797120,FA,NCT01797120-0007,33,OCCUR,Occurrence Indicator,PROGRESSIVE DISEASE,Y,Y,INDUCTION,2022-04-06
NCT01797120,FA,NCT01797120-0007,34,OCCUR,Occurrence Indicator,PROGRESSIVE DISEASE,Y,Y,INDUCTION,2022-04-06
NCT01797120,FA,NCT01797120-0007,35,OCCUR,Occurrence Indicator,DEATH,Y,Y,FOLLOW-UP,2024-03-07
NCT01797120,FA,NCT01797120-0008,36,OCCUR,Occurrence Indicator,INFORMED CONSENT OBTAINED,Y,Y,,2022-12-12
NCT01797120,FA,NCT01797120-0008,37,OCCUR,Occurrence Indicator,RANDOMIZED,Y,Y,,2022-12-28
NCT01797120,FA,NCT01797120-0008,38,OCCUR,Occurrence Indicator,PROGRESSIVE DISEASE,Y,Y,INDUCTION,2023-03-23
NCT01797120,FA,NCT01797120-0008,39,OCCUR,Occurrence Indicator,PROGRESSIVE DISEASE,Y,Y,INDUCTION,2023-03-23
NCT01797120,FA,NCT01797120-0008,40,OCCUR,Occurrence Indicator,DEATH,Y,Y,FOLLOW-UP,2024-01-06
NCT01797120,FA,NCT01797120-0009,41,OCCUR,Occurrence Indicator,INFORMED CONSENT OBTAINED,Y,Y,,2022-11-26
NCT01797120,FA,NCT01797120-0009,42,OCCUR,Occurrence Indicator,RANDOMIZED,Y,Y,,2022-12-03
NCT01797120,FA,NCT01797120-0009,43,OCCUR,Occurrence Indicator,WITHDRAWAL BY SUBJECT,Y,Y,CONTINUATION,2024-03-01
NCT01797120,FA,NCT01797120-0009,44,OCCUR,Occurrence Indicator,WITHDRAWAL BY SUBJECT,Y,Y,CONTINUATION,2024-03-01
NCT01797120,FA,NCT01797120-0009,45,OCCUR,Occurrence Indicator,DEATH,Y,Y,FOLLOW-UP,2025-06-12
NCT01797120,FA,NCT01797120-0010,46,OCCUR,Occurrence Indicator,INFORMED CONSENT OBTAINED,Y,Y,,2022-11-15
NCT01797120,FA,NCT01797120-0010,47,OCCUR,Occurrence Indicator,RANDOMIZED,Y,Y,,2022-12-11
NCT01797120,FA,NCT01797120-0010,48,OCCUR,Occurrence Indicator,PROGRESSIVE DISEASE,Y,Y,CONTINUATION,2024-07-22
NCT01797120,FA,NCT01797120-0010,49,OCCUR,Occurrence Indicator,PROGRESSIVE DISEASE,Y,Y,CONTINUATION,2024-07-22
NCT01797120,FA,NCT01797120-0010,50,OCCUR,Occurrence Indicator,DEATH,Y,Y,FOLLOW-UP,2025-05-03
NCT01797120,FA,NCT01797120-0011,51,OCCUR,Occurrence Indicator,INFORMED CONSENT OBTAINED,Y,Y,,2022-12-18
NCT01797120,FA,NCT01797120-0011,52,OCCUR,Occurrence Indicator,RANDOMIZED,Y,Y,,2022-12-29
NCT01797120,FA,NCT01797120-0011,53,OCCUR,Occurrence Indicator,LOST TO FOLLOW-UP,Y,Y,INDUCTION,2023-10-07
NCT01797120,FA,NCT01797120-0011,54,OCCUR,Occurrence Indicator,LOST TO FOLLOW-UP,Y,Y,INDUCTION,2023-10-07
NCT01797120,FA,NCT01797120-0011,55,OCCUR,Occurrence Indicator,LOST TO FOLLOW-UP,Y,Y,FOLLOW-UP,2024-01-09
NCT01797120,FA,NCT01797120-0012,56,OCCUR,Occurrence Indicator,INFORMED CONSENT OBTAINED,Y,Y,,2022-06-16
NCT01797120,FA,NCT01797120-0012,57,OCCUR,Occurrence Indicator,RANDOMIZED,Y,Y,,2022-07-10
NCT01797120,FA,NCT01797120-0012,58,OCCUR,Occurrence Indicator,PROGRESSIVE DISEASE,Y,Y,CONTINUATION,2024-05-13
NCT01797120,FA,NCT01797120-0012,59,OCCUR,Occurrence Indicator,PROGRESSIVE DISEASE,Y,Y,CONTINUATION,2024-05-13
NCT01797120,FA,NCT01797120-0012,60,OCCUR,Occurrence Indicator,DEATH,Y,Y,FOLLOW-UP,2025-08-07
NCT01797120,FA,NCT01797120-0013,61,OCCUR,Occurrence Indicator,INFORMED CONSENT OBTAINED,Y,Y,,2021-01-06
NCT01797120,FA,NCT01797120-0013,62,OCCUR,Occurrence Indicator,RANDOMIZED,Y,Y,,2021-02-02
NCT01797120,FA,NCT01797120-0013,63,OCCUR,Occurrence Indicator,PROGRESSIVE DISEASE,Y,Y,INDUCTION,2021-04-28
NCT01797120,FA,NCT01797120-0013,64,OCCUR,Occurrence Indicator,PROGRESSIVE DISEASE,Y,Y,INDUCTION,2021-04-28
NCT01797120,FA,NCT01797120-0013,65,OCCUR,Occurrence Indicator,DEATH,Y,Y,FOLLOW-UP,2021-07-24
NCT01797120,FA,NCT01797120-0014,66,OCCUR,Occurrence Indicator,INFORMED CONSENT OBTAINED,Y,Y,,2020-12-15
NCT01797120,FA,NCT01797120-0014,67,OCCUR,Occurrence Indicator,RANDOMIZED,Y,Y,,2021-01-12
NCT01797120,FA,NCT01797120-0014,68,OCCUR,Occurrence Indicator,PROGRESSIVE DISEASE,Y,Y,INDUCTION,2021-09-22
NCT01797120,FA,NCT01797120-0014,69,OCCUR,Occurrence Indicator,PROGRESSIVE DISEASE,Y,Y,INDUCTION,2021-09-22
NCT01797120,FA,NCT01797120-0014,70,OCCUR,Occurrence Indicator,DEATH,Y,Y,FOLLOW-UP,2022-06-24
NCT01797120,FA,NCT01797120-0015,71,OCCUR,Occurrence Indicator,INFORMED CONSENT OBTAINED,Y,Y,,2022-08-17
NCT01797120,FA,NCT01797120-0015,72,OCCUR,Occurrence Indicator,RANDOMIZED,Y,Y,,2022-09-09
NCT01797120,FA,NCT01797120-0015,73,OCCUR,Occurrence Indicator,PROGRESSIVE DISEASE,Y,Y,INDUCTION,2023-05-20
NCT01797120,FA,NCT01797120-0015,74,OCCUR,Occurrence Indicator,PROGRESSIVE DISEASE,Y,Y,INDUCTION,2023-05-20
NCT01797120,FA,NCT01797120-0015,75,OCCUR,Occurrence Indicator,WITHDRAWAL BY SUBJECT,Y,Y,FOLLOW-UP,2023-10-07
NCT01797120,FA,NCT01797120-0016,76,OCCUR,Occurrence Indicator,INFORMED CONSENT OBTAINED,Y,Y,,2021-07-22
NCT01797120,FA,NCT01797120-0016,77,OCCUR,Occurrence Indicator,RANDOMIZED,Y,Y,,2021-08-01
NCT01797120,FA,NCT01797120-0016,78,OCCUR,Occurrence Indicator,PROGRESSIVE DISEASE,Y,Y,INDUCTION,2022-01-17
NCT01797120,FA,NCT01797120-0016,79,OCCUR,Occurrence Indicator,PROGRESSIVE DISEASE,Y,Y,INDUCTION,2022-01-17
NCT01797120,FA,NCT01797120-0016,80,OCCUR,Occurrence Indicator,DEATH,Y,Y,FOLLOW-UP,2023-07-11
NCT01797120,FA,NCT01797120-0017,81,OCCUR,Occurrence Indicator,INFORMED CONSENT OBTAINED,Y,Y,,2021-05-02
NCT01797120,FA,NCT01797120-0017,82,OCCUR,Occurrence Indicator,RANDOMIZED,Y,Y,,2021-05-19
NCT01797120,FA,NCT01797120-0017,83,OCCUR,Occurrence Indicator,PROGRESSIVE DISEASE,Y,Y,CONTINUATION,2022-10-06
NCT01797120,FA,NCT01797120-0017,84,OCCUR,Occurrence Indicator,PROGRESSIVE DISEASE,Y,Y,CONTINUATION,2022-10-06
NCT01797120,FA,NCT01797120-0017,85,OCCUR,Occurrence Indicator,DEATH,Y,Y,FOLLOW-UP,2023-01-23
NCT01797120,FA,NCT01797120-0018,86,OCCUR,Occurrence Indicator,INFORMED CONSENT OBTAINED,Y,Y,,2022-11-18
NCT01797120,FA,NCT01797120-0018,87,OCCUR,Occurrence Indicator,RANDOMIZED,Y,Y,,2022-11-26
NCT01797120,FA,NCT01797120-0018,88,OCCUR,Occurrence Indicator,PROGRESSIVE DISEASE,Y,Y,INDUCTION,2023-05-14
NCT01797120,FA,NCT01797120-0018,89,OCCUR,Occurrence Indicator,PROGRESSIVE DISEASE,Y,Y,INDUCTION,2023-05-14
NCT01797120,FA,NCT01797120-0018,90,OCCUR,Occurrence Indicator,DEATH,Y,Y,FOLLOW-UP,2023-06-20
NCT01797120,FA,NCT01797120-0019,91,OCCUR,Occurrence Indicator,INFORMED CONSENT OBTAINED,Y,Y,,2022-01-30
NCT01797120,FA,NCT01797120-0019,92,OCCUR,Occurrence Indicator,RANDOMIZED,Y,Y,,2022-02-26
NCT01797120,FA,NCT01797120-0019,93,OCCUR,Occurrence Indicator,PROGRESSIVE DISEASE,Y,Y,CONTINUATION,2025-11-02
NCT01797120,FA,NCT01797120-0019,94,OCCUR,Occurrence Indicator,PROGRESSIVE DISEASE,Y,Y,CONTINUATION,2025-11-02
NCT01797120,FA,NCT01797120-0019,95,OCCUR,Occurrence Indicator,LOST TO FOLLOW-UP,Y,Y,FOLLOW-UP,2026-03-20
NCT01797120,FA,NCT01797120-0020,96,OCCUR,Occurrence Indicator,INFORMED CONSENT OBTAINED,Y,Y,,2022-09-19
NCT01797120,FA,NCT01797120-0020,97,OCCUR,Occurrence Indicator,RANDOMIZED,Y,Y,,2022-09-30
NCT01797120,FA,NCT01797120-0020,98,OCCUR,Occurrence Indicator,PROGRESSIVE DISEASE,Y,Y,INDUCTION,2023-06-10
NCT01797120,FA,NCT01797120-0020,99,OCCUR,Occurrence Indicator,PROGRESSIVE DISEASE,Y,Y,INDUCTION,2023-06-10
NCT01797120,FA,NCT01797120-0020,100,OCCUR,Occurrence Indicator,LOST TO FOLLOW-UP,Y,Y,FOLLOW-UP,2023-07-21
NCT01797120,FA,NCT01797120-0021,101,OCCUR,Occurrence Indicator,INFORMED CONSENT OBTAINED,Y,Y,,2022-10-20
NCT01797120,FA,NCT01797120-0021,102,OCCUR,Occurrence Indicator,RANDOMIZED,Y,Y,,2022-10-31
NCT01797120,FA,NCT01797120-0021,103,OCCUR,Occurrence Indicator,PROGRESSIVE DISEASE,Y,Y,INDUCTION,2023-01-24
NCT01797120,FA,NCT01797120-0021,104,OCCUR,Occurrence Indicator,PROGRESSIVE DISEASE,Y,Y,INDUCTION,2023-01-24
NCT01797120,FA,NCT01797120-0021,105,OCCUR,Occurrence Indicator,DEATH,Y,Y,FOLLOW-UP,2023-04-27
NCT01797120,FA,NCT01797120-0022,106,OCCUR,Occurrence Indicator,INFORMED CONSENT OBTAINED,Y,Y,,2022-08-24
NCT01797120,FA,NCT01797120-0022,107,OCCUR,Occurrence Indicator,RANDOMIZED,Y,Y,,2022-09-16
NCT01797120,FA,NCT01797120-0022,108,OCCUR,Occurrence Indicator,PROGRESSIVE DISEASE,Y,Y,INDUCTION,2022-12-10
NCT01797120,FA,NCT01797120-0022,109,OCCUR,Occurrence Indicator,PROGRESSIVE DISEASE,Y,Y,INDUCTION,2022-12-10
NCT01797120,FA,NCT01797120-0022,110,OCCUR,Occurrence Indicator,LOST TO FOLLOW-UP,Y,Y,FOLLOW-UP,2023-04-07
NCT01797120,FA,NCT01797120-0023,111,OCCUR,Occurrence Indicator,INFORMED CONSENT OBTAINED,Y,Y,,2022-04-11
NCT01797120,FA,NCT01797120-0023,112,OCCUR,Occurrence Indicator,RANDOMIZED,Y,Y,,2022-05-04
NCT01797120,FA,NCT01797120-0023,113,OCCUR,Occurrence Indicator,PROGRESSIVE DISEASE,Y,Y,INDUCTION,2022-07-28
NCT01797120,FA,NCT01797120-0023,114,OCCUR,Occurrence Indicator,PROGRESSIVE DISEASE,Y,Y,INDUCTION,2022-07-28
NCT01797120,FA,NCT01797120-0023,115,OCCUR,Occurrence Indicator,DEATH,Y,Y,FOLLOW-UP,2022-09-22
NCT01797120,FA,NCT01797120-0024,116,OCCUR,Occurrence Indicator,INFORMED CONSENT OBTAINED,Y,Y,,2022-06-02
NCT01797120,FA,NCT01797120-0024,117,OCCUR,Occurrence Indicator,RANDOMIZED,Y,Y,,2022-06-24
NCT01797120,FA,NCT01797120-0024,118,OCCUR,Occurrence Indicator,PROGRESSIVE DISEASE,Y,Y,INDUCTION,2022-12-10
NCT01797120,FA,NCT01797120-0024,119,OCCUR,Occurrence Indicator,PROGRESSIVE DISEASE,Y,Y,INDUCTION,2022-12-10
NCT01797120,FA,NCT01797120-0024,120,OCCUR,Occurrence Indicator,DEATH,Y,Y,FOLLOW-UP,2023-02-23
NCT01797120,FA,NCT01797120-0025,121,OCCUR,Occurrence Indicator,INFORMED CONSENT OBTAINED,Y,Y,,2021-07-20
NCT01797120,FA,NCT01797120-0025,122,OCCUR,Occurrence Indicator,RANDOMIZED,Y,Y,,2021-08-06
NCT01797120,FA,NCT01797120-0025,123,OCCUR,Occurrence Indicator,PROGRESSIVE DISEASE,Y,Y,INDUCTION,2021-10-30
NCT01797120,FA,NCT01797120-0025,124,OCCUR,Occurrence Indicator,PROGRESSIVE DISEASE,Y,Y,INDUCTION,2021-10-30
NCT01797120,FA,NCT01797120-0025,125,OCCUR,Occurrence Indicator,DEATH,Y,Y,FOLLOW-UP,2023-03-18
NCT01797120,FA,NCT01797120-0026,126,OCCUR,Occurrence Indicator,INFORMED CONSENT OBTAINED,Y,Y,,2022-10-06
NCT01797120,FA,NCT01797120-0026,127,OCCUR,Occurrence Indicator,RANDOMIZED,Y,Y,,2022-10-26
NCT01797120,FA,NCT01797120-0026,128,OCCUR,Occurrence Indicator,PROGRESSIVE DISEASE,Y,Y,INDUCTION,2023-04-13
NCT01797120,FA,NCT01797120-0026,129,OCCUR,Occurrence Indicator,PROGRESSIVE DISEASE,Y,Y,INDUCTION,2023-04-13
NCT01797120,FA,NCT01797120-0026,130,OCCUR,Occurrence Indicator,DEATH,Y,Y,FOLLOW-UP,2023-05-23
NCT01797120,FA,NCT01797120-0027,131,OCCUR,Occurrence Indicator,INFORMED CONSENT OBTAINED,Y,Y,,2021-10-20
NCT01797120,FA,NCT01797120-0027,132,OCCUR,Occurrence Indicator,RANDOMIZED,Y,Y,,2021-11-04
NCT01797120,FA,NCT01797120-0027,133,OCCUR,Occurrence Indicator,PROGRESSIVE DISEASE,Y,Y,INDUCTION,2022-04-22
NCT01797120,FA,NCT01797120-0027,134,OCCUR,Occurrence Indicator,PROGRESSIVE DISEASE,Y,Y,INDUCTION,2022-04-22
NCT01797120,FA,NCT01797120-0027,135,OCCUR,Occurrence Indicator,DEATH,Y,Y,FOLLOW-UP,2022-05-31
NCT01797120,FA,NCT01797120-0028,136,OCCUR,Occurrence Indicator,INFORMED CONSENT OBTAINED,Y,Y,,2021-06-06
NCT01797120,FA,NCT01797120-0028,137,OCCUR,Occurrence Indicator,RANDOMIZED,Y,Y,,2021-06-24
NCT01797120,FA,NCT01797120-0028,138,OCCUR,Occurrence Indicator,PROGRESSIVE DISEASE,Y,Y,INDUCTION,2021-09-17
NCT01797120,FA,NCT01797120-0028,139,OCCUR,Occurrence Indicator,PROGRESSIVE DISEASE,Y,Y,INDUCTION,2021-09-17
NCT01797120,FA,NCT01797120-0028,140,OCCUR,Occurrence Indicator,DEATH,Y,Y,FOLLOW-UP,2022-05-30
NCT01797120,FA,NCT01797120-0029,141,OCCUR,Occurrence Indicator,INFORMED CONSENT OBTAINED,Y,Y,,2021-05-02
NCT01797120,FA,NCT01797120-0029,142,OCCUR,Occurrence Indicator,RANDOMIZED,Y,Y,,2021-05-29
NCT01797120,FA,NCT01797120-0029,143,OCCUR,Occurrence Indicator,PROGRESSIVE DISEASE,Y,Y,INDUCTION,2022-02-06
NCT01797120,FA,NCT01797120-0029,144,OCCUR,Occurrence Indicator,PROGRESSIVE DISEASE,Y,Y,INDUCTION,2022-02-06
NCT01797120,FA,NCT01797120-0029,145,OCCUR,Occurrence Indicator,DEATH,Y,Y,FOLLOW-UP,2022-09-10
NCT01797120,FA,NCT01797120-0030,146,OCCUR,Occurrence Indicator,INFORMED CONSENT OBTAINED,Y,Y,,2022-06-13
NCT01797120,FA,NCT01797120-0030,147,OCCUR,Occurrence Indicator,RANDOMIZED,Y,Y,,2022-06-26
NCT01797120,FA,NCT01797120-0030,148,OCCUR,Occurrence Indicator,PROGRESSIVE DISEASE,Y,Y,INDUCTION,2023-03-06
NCT01797120,FA,NCT01797120-0030,149,OCCUR,Occurrence Indicator,PROGRESSIVE DISEASE,Y,Y,INDUCTION,2023-03-06
NCT01797120,FA,NCT01797120-0030,150,OCCUR,Occurrence Indicator,DEATH,Y,Y,FOLLOW-UP,2023-04-03
NCT01797120,FA,NCT01797120-0031,151,OCCUR,Occurrence Indicator,INFORMED CONSENT OBTAINED,Y,Y,,2022-07-18
NCT01797120,FA,NCT01797120-0031,152,OCCUR,Occurrence Indicator,RANDOMIZED,Y,Y,,2022-08-03
NCT01797120,FA,NCT01797120-0031,153,OCCUR,Occurrence Indicator,PROGRESSIVE DISEASE,Y,Y,INDUCTION,2022-10-27
NCT01797120,FA,NCT01797120-0031,154,OCCUR,Occurrence Indicator,PROGRESSIVE DISEASE,Y,Y,INDUCTION,2022-10-27
NCT01797120,FA,NCT01797120-0031,155,OCCUR,Occurrence Indicator,LOST TO FOLLOW-UP,Y,Y,FOLLOW-UP,2023-04-02
NCT01797120,FA,NCT01797120-0032,156,OCCUR,Occurrence Indicator,INFORMED CONSENT OBTAINED,Y,Y,,2022-06-10
NCT01797120,FA,NCT01797120-0032,157,OCCUR,Occurrence Indicator,RANDOMIZED,Y,Y,,2022-07-02
NCT01797120,FA,NCT01797120-0032,158,OCCUR,Occurrence Indicator,PROGRESSIVE DISEASE,Y,Y,CONTINUATION,2025-06-29
NCT01797120,FA,NCT01797120-0032,159,OCCUR,Occurrence Indicator,PROGRESSIVE DISEASE,Y,Y,CONTINUATION,2025-06-29
NCT01797120,FA,NCT01797120-0032,160,OCCUR,Occurrence Indicator,WITHDRAWAL BY SUBJECT,Y,Y,FOLLOW-UP,2025-12-19
NCT01797120,FA,NCT01797120-0033,161,OCCUR,Occurrence Indicator,INFORMED CONSENT OBTAINED,Y,Y,,2022-01-19
NCT01797120,FA,NCT01797120-0033,162,OCCUR,Occurrence Indicator,RANDOMIZED,Y,Y,,2022-01-29
NCT01797120,FA,NCT01797120-0033,163,OCCUR,Occurrence Indicator,PROGRESSIVE DISEASE,Y,Y,CONTINUATION,2023-03-26
NCT01797120,FA,NCT01797120-0033,164,OCCUR,Occurrence Indicator,PROGRESSIVE DISEASE,Y,Y,CONTINUATION,2023-03-26
NCT01797120,FA,NCT01797120-0033,165,OCCUR,Occurrence Indicator,DEATH,Y,Y,FOLLOW-UP,2023-05-26
NCT01797120,FA,NCT01797120-0034,166,OCCUR,Occurrence Indicator,INFORMED CONSENT OBTAINED,Y,Y,,2021-02-17
NCT01797120,FA,NCT01797120-0034,167,OCCUR,Occurrence Indicator,RANDOMIZED,Y,Y,,2021-03-15
NCT01797120,FA,NCT01797120-0034,168,OCCUR,Occurrence Indicator,PROGRESSIVE DISEASE,Y,Y,CONTINUATION,2022-02-15
NCT01797120,FA,NCT01797120-0034,169,OCCUR,Occurrence Indicator,PROGRESSIVE DISEASE,Y,Y,CONTINUATION,2022-02-15
NCT01797120,FA,NCT01797120-0034,170,OCCUR,Occurrence Indicator,DEATH,Y,Y,FOLLOW-UP,2022-05-15
NCT01797120,FA,NCT01797120-0035,171,OCCUR,Occurrence Indicator,INFORMED CONSENT OBTAINED,Y,Y,,2021-10-06
NCT01797120,FA,NCT01797120-0035,172,OCCUR,Occurrence Indicator,RANDOMIZED,Y,Y,,2021-10-25
NCT01797120,FA,NCT01797120-0035,173,OCCUR,Occurrence Indicator,PROGRESSIVE DISEASE,Y,Y,CONTINUATION,2022-12-20
NCT01797120,FA,NCT01797120-0035,174,OCCUR,Occurrence Indicator,PROGRESSIVE DISEASE,Y,Y,CONTINUATION,2022-12-20
NCT01797120,FA,NCT01797120-0035,175,OCCUR,Occurrence Indicator,DEATH,Y,Y,FOLLOW-UP,2024-05-11
NCT01797120,FA,NCT01797120-0036,176,OCCUR,Occurrence Indicator,INFORMED CONSENT OBTAINED,Y,Y,,2022-01-05
NCT01797120,FA,NCT01797120-0036,177,OCCUR,Occurrence Indicator,RANDOMIZED,Y,Y,,2022-01-30
NCT01797120,FA,NCT01797120-0036,178,OCCUR,Occurrence Indicator,PROGRESSIVE DISEASE,Y,Y,INDUCTION,2022-10-10
NCT01797120,FA,NCT01797120-0036,179,OCCUR,Occurrence Indicator,PROGRESSIVE DISEASE,Y,Y,INDUCTION,2022-10-10
NCT01797120,FA,NCT01797120-0036,180,OCCUR,Occurrence Indicator,DEATH,Y,Y,FOLLOW-UP,2023-02-27
NCT01797120,FA,NCT01797120-0037,181,OCCUR,Occurrence Indicator,INFORMED CONSENT OBTAINED,Y,Y,,2022-05-31
NCT01797120,FA,NCT01797120-0037,182,OCCUR,Occurrence Indicator,RANDOMIZED,Y,Y,,2022-06-24
NCT01797120,FA,NCT01797120-0037,183,OCCUR,Occurrence Indicator,WITHDRAWAL BY SUBJECT,Y,Y,CONTINUATION,2024-01-28
NCT01797120,FA,NCT01797120-0037,184,OCCUR,Occurrence Indicator,WITHDRAWAL BY SUBJECT,Y,Y,CONTINUATION,2024-01-28
NCT01797120,FA,NCT01797120-0037,185,OCCUR,Occurrence Indicator,WITHDRAWAL BY SUBJECT,Y,Y,FOLLOW-UP,2024-01-28
NCT01797120,FA,NCT01797120-0038,186,OCCUR,Occurrence Indicator,INFORMED CONSENT OBTAINED,Y,Y,,2022-02-17
NCT01797120,FA,NCT01797120-0038,187,OCCUR,Occurrence Indicator,RANDOMIZED,Y,Y,,2022-03-06
NCT01797120,FA,NCT01797120-0038,188,OCCUR,Occurrence Indicator,PROGRESSIVE DISEASE,Y,Y,CONTINUATION,2024-06-24
NCT01797120,FA,NCT01797120-0038,189,OCCUR,Occurrence Indicator,PROGRESSIVE DISEASE,Y,Y,CONTINUATION,2024-06-24
NCT01797120,FA,NCT01797120-0038,190,OCCUR,Occurrence Indicator,DEATH,Y,Y,FOLLOW-UP,2024-12-30
NCT01797120,FA,NCT01797120-0039,191,OCCUR,Occurrence Indicator,INFORMED CONSENT OBTAINED,Y,Y,,2021-07-10
NCT01797120,FA,NCT01797120-0039,192,OCCUR,Occurrence Indicator,RANDOMIZED,Y,Y,,2021-07-19
NCT01797120,FA,NCT01797120-0039,193,OCCUR,Occurrence Indicator,PROGRESSIVE DISEASE,Y,Y,INDUCTION,2022-03-29
NCT01797120,FA,NCT01797120-0039,194,OCCUR,Occurrence Indicator,PROGRESSIVE DISEASE,Y,Y,INDUCTION,2022-03-29
NCT01797120,FA,NCT01797120-0039,195,OCCUR,Occurrence Indicator,LOST TO FOLLOW-UP,Y,Y,FOLLOW-UP,2022-07-06
NCT01797120,FA,NCT01797120-0040,196,OCCUR,Occurrence Indicator,INFORMED CONSENT OBTAINED,Y,Y,,2022-02-20
NCT01797120,FA,NCT01797120-0040,197,OCCUR,Occurrence Indicator,RANDOMIZED,Y,Y,,2022-02-28
NCT01797120,FA,NCT01797120-0040,198,OCCUR,Occurrence Indicator,PROGRESSIVE DISEASE,Y,Y,INDUCTION,2022-08-16
NCT01797120,FA,NCT01797120-0040,199,OCCUR,Occurrence Indicator,PROGRESSIVE DISEASE,Y,Y,INDUCTION,2022-08-16
NCT01797120,FA,NCT01797120-0040,200,OCCUR,Occurrence Indicator,DEATH,Y,Y,FOLLOW-UP,2022-09-20
NCT01797120,FA,NCT01797120-0041,201,OCCUR,Occurrence Indicator,INFORMED CONSENT OBTAINED,Y,Y,,2021-02-13
NCT01797120,FA,NCT01797120-0041,202,OCCUR,Occurrence Indicator,RANDOMIZED,Y,Y,,2021-03-03
NCT01797120,FA,NCT01797120-0041,203,OCCUR,Occurrence Indicator,PROGRESSIVE DISEASE,Y,Y,INDUCTION,2021-08-19
NCT01797120,FA,NCT01797120-0041,204,OCCUR,Occurrence Indicator,PROGRESSIVE DISEASE,Y,Y,INDUCTION,2021-08-19
NCT01797120,FA,NCT01797120-0041,205,OCCUR,Occurrence Indicator,DEATH,Y,Y,FOLLOW-UP,2022-02-06
NCT01797120,FA,NCT01797120-0042,206,OCCUR,Occurrence Indicator,INFORMED CONSENT OBTAINED,Y,Y,,2021-11-28
NCT01797120,FA,NCT01797120-0042,207,OCCUR,Occurrence Indicator,RANDOMIZED,Y,Y,,2021-12-08
NCT01797120,FA,NCT01797120-0042,208,OCCUR,Occurrence Indicator,PROGRESSIVE DISEASE,Y,Y,INDUCTION,2022-03-03
NCT01797120,FA,NCT01797120-0042,209,OCCUR,Occurrence Indicator,PROGRESSIVE DISEASE,Y,Y,INDUCTION,2022-03-03
NCT01797120,FA,NCT01797120-0042,210,OCCUR,Occurrence Indicator,DEATH,Y,Y,FOLLOW-UP,2022-05-03
NCT01797120,FA,NCT01797120-0043,211,OCCUR,Occurrence Indicator,INFORMED CONSENT OBTAINED,Y,Y,,2021-01-26
NCT01797120,FA,NCT01797120-0043,212,OCCUR,Occurrence Indicator,RANDOMIZED,Y,Y,,2021-02-14
NCT01797120,FA,NCT01797120-0043,213,OCCUR,Occurrence Indicator,PROGRESSIVE DISEASE,Y,Y,CONTINUATION,2023-03-13
NCT01797120,FA,NCT01797120-0043,214,OCCUR,Occurrence Indicator,PROGRESSIVE DISEASE,Y,Y,CONTINUATION,2023-03-13
NCT01797120,FA,NCT01797120-0043,215,OCCUR,Occurrence Indicator,DEATH,Y,Y,FOLLOW-UP,2024-10-03
NCT01797120,FA,NCT01797120-0044,216,OCCUR,Occurrence Indicator,INFORMED CONSENT OBTAINED,Y,Y,,2021-03-19
NCT01797120,FA,NCT01797120-0044,217,OCCUR,Occurrence Indicator,RANDOMIZED,Y,Y,,2021-03-30
NCT01797120,FA,NCT01797120-0044,218,OCCUR,Occurrence Indicator,PROGRESSIVE DISEASE,Y,Y,INDUCTION,2021-06-23
NCT01797120,FA,NCT01797120-0044,219,OCCUR,Occurrence Indicator,PROGRESSIVE DISEASE,Y,Y,INDUCTION,2021-06-23
NCT01797120,FA,NCT01797120-0044,220,OCCUR,Occurrence Indicator,DEATH,Y,Y,FOLLOW-UP,2021-08-10
NCT01797120,FA,NCT01797120-0045,221,OCCUR,Occurrence Indicator,INFORMED CONSENT OBTAINED,Y,Y,,2021-01-26
NCT01797120,FA,NCT01797120-0045,222,OCCUR,Occurrence Indicator,RANDOMIZED,Y,Y,,2021-02-03
NCT01797120,FA,NCT01797120-0045,223,OCCUR,Occurrence Indicator,PROGRESSIVE DISEASE,Y,Y,INDUCTION,2021-04-29
NCT01797120,FA,NCT01797120-0045,224,OCCUR,Occurrence Indicator,PROGRESSIVE DISEASE,Y,Y,INDUCTION,2021-04-29
NCT01797120,FA,NCT01797120-0045,225,OCCUR,Occurrence Indicator,DEATH,Y,Y,FOLLOW-UP,2022-03-05
NCT01797120,FA,NCT01797120-0046,226,OCCUR,Occurrence Indicator,INFORMED CONSENT OBTAINED,Y,Y,,2022-09-14
NCT01797120,FA,NCT01797120-0046,227,OCCUR,Occurrence Indicator,RANDOMIZED,Y,Y,,2022-10-08
NCT01797120,FA,NCT01797120-0046,228,OCCUR,Occurrence Indicator,PROGRESSIVE DISEASE,Y,Y,INDUCTION,2023-01-01
NCT01797120,FA,NCT01797120-0046,229,OCCUR,Occurrence Indicator,PROGRESSIVE DISEASE,Y,Y,INDUCTION,2023-01-01
NCT01797120,FA,NCT01797120-0046,230,OCCUR,Occurrence Indicator,LOST TO FOLLOW-UP,Y,Y,FOLLOW-UP,2023-02-23
NCT01797120,FA,NCT01797120-0047,231,OCCUR,Occurrence Indicator,INFORMED CONSENT OBTAINED,Y,Y,,2021-08-14
NCT01797120,FA,NCT01797120-0047,232,OCCUR,Occurrence Indicator,RANDOMIZED,Y,Y,,2021-08-21
NCT01797120,FA,NCT01797120-0047,233,OCCUR,Occurrence Indicator,WITHDRAWAL BY SUBJECT,Y,Y,CONTINUATION,2023-04-01
NCT01797120,FA,NCT01797120-0047,234,OCCUR,Occurrence Indicator,WITHDRAWAL BY SUBJECT,Y,Y,CONTINUATION,2023-04-01
NCT01797120,FA,NCT01797120-0047,235,OCCUR,Occurrence Indicator,WITHDRAWAL BY SUBJECT,Y,Y,FOLLOW-UP,2023-04-01
NCT01797120,FA,NCT01797120-0048,236,OCCUR,Occurrence Indicator,INFORMED CONSENT OBTAINED,Y,Y,,2021-01-23
NCT01797120,FA,NCT01797120-0048,237,OCCUR,Occurrence Indicator,RANDOMIZED,Y,Y,,2021-02-06
NCT01797120,FA,NCT01797120-0048,238,OCCUR,Occurrence Indicator,PROGRESSIVE DISEASE,Y,Y,INDUCTION,2021-07-25
NCT01797120,FA,NCT01797120-0048,239,OCCUR,Occurrence Indicator,PROGRESSIVE DISEASE,Y,Y,INDUCTION,2021-07-25
NCT01797120,FA,NCT01797120-0048,240,OCCUR,Occurrence Indicator,DEATH,Y,Y,FOLLOW-UP,2021-10-04
NCT01797120,FA,NCT01797120-0049,241,OCCUR,Occurrence Indicator,INFORMED CONSENT OBTAINED,Y,Y,,2022-03-25
NCT01797120,FA,NCT01797120-0049,242,OCCUR,Occurrence Indicator,RANDOMIZED,Y,Y,,2022-04-05
NCT01797120,FA,NCT01797120-0049,243,OCCUR,Occurrence Indicator,PROGRESSIVE DISEASE,Y,Y,CONTINUATION,2023-11-15
NCT01797120,FA,NCT01797120-0049,244,OCCUR,Occurrence Indicator,PROGRESSIVE DISEASE,Y,Y,CONTINUATION,2023-11-15
NCT01797120,FA,NCT01797120-0049,245,OCCUR,Occurrence Indicator,LOST TO FOLLOW-UP,Y,Y,FOLLOW-UP,2024-03-30
NCT01797120,FA,NCT01797120-0050,246,OCCUR,Occurrence Indicator,INFORMED CONSENT OBTAINED,Y,Y,,2021-10-08
NCT01797120,FA,NCT01797120-0050,247,OCCUR,Occurrence Indicator,RANDOMIZED,Y,Y,,2021-10-18
NCT01797120,FA,NCT01797120-0050,248,OCCUR,Occurrence Indicator,PROGRESSIVE DISEASE,Y,Y,INDUCTION,2022-06-28
NCT01797120,FA,NCT01797120-0050,249,OCCUR,Occurrence Indicator,PROGRESSIVE DISEASE,Y,Y,INDUCTION,2022-06-28
NCT01797120,FA,NCT01797120-0050,250,OCCUR,Occurrence Indicator,LOST TO FOLLOW-UP,Y,Y,FOLLOW-UP,2022-10-04
NCT01797120,FA,NCT01797120-0051,251,OCCUR,Occurrence Indicator,INFORMED CONSENT OBTAINED,Y,Y,,2021-07-05
NCT01797120,FA,NCT01797120-0051,252,OCCUR,Occurrence Indicator,RANDOMIZED,Y,Y,,2021-07-17
NCT01797120,FA,NCT01797120-0051,253,OCCUR,Occurrence Indicator,LOST TO FOLLOW-UP,Y,Y,CONTINUATION,2023-02-28
NCT01797120,FA,NCT01797120-0051,254,OCCUR,Occurrence Indicator,LOST TO FOLLOW-UP,Y,Y,CONTINUATION,2023-02-28
NCT01797120,FA,NCT01797120-0051,255,OCCUR,Occurrence Indicator,LOST TO FOLLOW-UP,Y,Y,FOLLOW-UP,2023-04-28
NCT01797120,FA,NCT01797120-0052,256,OCCUR,Occurrence Indicator,INFORMED CONSENT OBTAINED,Y,Y,,2021-08-30
NCT01797120,FA,NCT01797120-0052,257,OCCUR,Occurrence Indicator,RANDOMIZED,Y,Y,,2021-09-12
NCT01797120,FA,NCT01797120-0052,258,OCCUR,Occurrence Indicator,PROGRESSIVE DISEASE,Y,Y,INDUCTION,2021-12-06
NCT01797120,FA,NCT01797120-0052,259,OCCUR,Occurrence Indicator,PROGRESSIVE DISEASE,Y,Y,INDUCTION,2021-12-06
NCT01797120,FA,NCT01797120-0052,260,OCCUR,Occurrence Indicator,DEATH,Y,Y,FOLLOW-UP,2022-05-31
NCT01797120,FA,NCT01797120-0053,261,OCCUR,Occurrence Indicator,INFORMED CONSENT OBTAINED,Y,Y,,2021-03-12
NCT01797120,FA,NCT01797120-0053,262,OCCUR,Occurrence Indicator,RANDOMIZED,Y,Y,,2021-03-22
NCT01797120,FA,NCT01797120-0053,263,OCCUR,Occurrence Indicator,PROGRESSIVE DISEASE,Y,Y,INDUCTION,2021-06-15
NCT01797120,FA,NCT01797120-0053,264,OCCUR,Occurrence Indicator,PROGRESSIVE DISEASE,Y,Y,INDUCTION,2021-06-15
NCT01797120,FA,NCT01797120-0053,265,OCCUR,Occurrence Indicator,DEATH,Y,Y,FOLLOW-UP,2022-10-07
NCT01797120,FA,NCT01797120-0054,266,OCCUR,Occurrence Indicator,INFORMED CONSENT OBTAINED,Y,Y,,2022-03-14
NCT01797120,FA,NCT01797120-0054,267,OCCUR,Occurrence Indicator,RANDOMIZED,Y,Y,,2022-03-23
NCT01797120,FA,NCT01797120-0054,268,OCCUR,Occurrence Indicator,PROGRESSIVE DISEASE,Y,Y,CONTINUATION,2025-03-20
NCT01797120,FA,NCT01797120-0054,269,OCCUR,Occurrence Indicator,PROGRESSIVE DISEASE,Y,Y,CONTINUATION,2025-03-20
NCT01797120,FA,NCT01797120-0054,270,OCCUR,Occurrence Indicator,DEATH,Y,Y,FOLLOW-UP,2025-11-15
NCT01797120,FA,NCT01797120-0055,271,OCCUR,Occurrence Indicator,INFORMED CONSENT OBTAINED,Y,Y,,2021-05-02
NCT01797120,FA,NCT01797120-0055,272,OCCUR,Occurrence Indicator,RANDOMIZED,Y,Y,,2021-05-17
NCT01797120,FA,NCT01797120-0055,273,OCCUR,Occurrence Indicator,PROGRESSIVE DISEASE,Y,Y,INDUCTION,2021-08-10
NCT01797120,FA,NCT01797120-0055,274,OCCUR,Occurrence Indicator,PROGRESSIVE DISEASE,Y,Y,INDUCTION,2021-08-10
NCT01797120,FA,NCT01797120-0055,275,OCCUR,Occurrence Indicator,DEATH,Y,Y,FOLLOW-UP,2021-11-28
NCT01797120,FA,NCT01797120-0056,276,OCCUR,Occurrence Indicator,INFORMED CONSENT OBTAINED,Y,Y,,2021-07-01
NCT01797120,FA,NCT01797120-0056,277,OCCUR,Occurrence Indicator,RANDOMIZED,Y,Y,,2021-07-09
NCT01797120,FA,NCT01797120-0056,278,OCCUR,Occurrence Indicator,PROGRESSIVE DISEASE,Y,Y,INDUCTION,2021-10-02
NCT01797120,FA,NCT01797120-0056,279,OCCUR,Occurrence Indicator,PROGRESSIVE DISEASE,Y,Y,INDUCTION,2021-10-02
NCT01797120,FA,NCT01797120-0056,280,OCCUR,Occurrence Indicator,LOST TO FOLLOW-UP,Y,Y,FOLLOW-UP,2022-01-31
NCT01797120,FA,NCT01797120-0057,281,OCCUR,Occurrence Indicator,INFORMED CONSENT OBTAINED,Y,Y,,2021-04-29
NCT01797120,FA,NCT01797120-0057,282,OCCUR,Occurrence Indicator,RANDOMIZED,Y,Y,,2021-05-10
NCT01797120,FA,NCT01797120-0057,283,OCCUR,Occurrence Indicator,PROGRESSIVE DISEASE,Y,Y,CONTINUATION,2023-11-21
NCT01797120,FA,NCT01797120-0057,284,OCCUR,Occurrence Indicator,PROGRESSIVE DISEASE,Y,Y,CONTINUATION,2023-11-21
NCT01797120,FA,NCT01797120-0057,285,OCCUR,Occurrence Indicator,DEATH,Y,Y,FOLLOW-UP,2024-02-26
NCT01797120,FA,NCT01797120-0058,286,OCCUR,Occurrence Indicator,INFORMED CONSENT OBTAINED,Y,Y,,2021-07-22
NCT01797120,FA,NCT01797120-0058,287,OCCUR,Occurrence Indicator,RANDOMIZED,Y,Y,,2021-07-29
NCT01797120,FA,NCT01797120-0058,288,OCCUR,Occurrence Indicator,PROGRESSIVE DISEASE,Y,Y,CONTINUATION,2022-09-23
NCT01797120,FA,NCT01797120-0058,289,OCCUR,Occurrence Indicator,PROGRESSIVE DISEASE,Y,Y,CONTINUATION,2022-09-23
NCT01797120,FA,NCT01797120-0058,290,OCCUR,Occurrence Indicator,LOST TO FOLLOW-UP,Y,Y,FOLLOW-UP,2023-02-15
NCT01797120,FA,NCT01797120-0059,291,OCCUR,Occurrence Indicator,INFORMED CONSENT OBTAINED,Y,Y,,2021-12-15
NCT01797120,FA,NCT01797120-0059,292,OCCUR,Occurrence Indicator,RANDOMIZED,Y,Y,,2022-01-04
NCT01797120,FA,NCT01797120-0059,293,OCCUR,Occurrence Indicator,PROGRESSIVE DISEASE,Y,Y,CONTINUATION,2024-04-24
NCT01797120,FA,NCT01797120-0059,294,OCCUR,Occurrence Indicator,PROGRESSIVE DISEASE,Y,Y,CONTINUATION,2024-04-24
NCT01797120,FA,NCT01797120-0059,295,OCCUR,Occurrence Indicator,LOST TO FOLLOW-UP,Y,Y,FOLLOW-UP,2024-10-09
NCT01797120,FA,NCT01797120-0060,296,OCCUR,Occurrence Indicator,INFORMED CONSENT OBTAINED,Y,Y,,2021-09-23
NCT01797120,FA,NCT01797120-0060,297,OCCUR,Occurrence Indicator,RANDOMIZED,Y,Y,,2021-10-19
NCT01797120,FA,NCT01797120-0060,298,OCCUR,Occurrence Indicator,PROGRESSIVE DISEASE,Y,Y,INDUCTION,2022-04-06
NCT01797120,FA,NCT01797120-0060,299,OCCUR,Occurrence Indicator,PROGRESSIVE DISEASE,Y,Y,INDUCTION,2022-04-06
NCT01797120,FA,NCT01797120-0060,300,OCCUR,Occurrence Indicator,DEATH,Y,Y,FOLLOW-UP,2023-03-11
NCT01797120,FA,NCT01797120-0061,301,OCCUR,Occurrence Indicator,INFORMED CONSENT OBTAINED,Y,Y,,2021-12-27
NCT01797120,FA,NCT01797120-0061,302,OCCUR,Occurrence Indicator,RANDOMIZED,Y,Y,,2022-01-12
NCT01797120,FA,NCT01797120-0061,303,OCCUR,Occurrence Indicator,PROGRESSIVE DISEASE,Y,Y,INDUCTION,2022-06-30
NCT01797120,FA,NCT01797120-0061,304,OCCUR,Occurrence Indicator,PROGRESSIVE DISEASE,Y,Y,INDUCTION,2022-06-30
NCT01797120,FA,NCT01797120-0061,305,OCCUR,Occurrence Indicator,DEATH,Y,Y,FOLLOW-UP,2022-09-29
NCT01797120,FA,NCT01797120-0062,306,OCCUR,Occurrence Indicator,INFORMED CONSENT OBTAINED,Y,Y,,2021-11-16
NCT01797120,FA,NCT01797120-0062,307,OCCUR,Occurrence Indicator,RANDOMIZED,Y,Y,,2021-12-14
NCT01797120,FA,NCT01797120-0062,308,OCCUR,Occurrence Indicator,PROGRESSIVE DISEASE,Y,Y,INDUCTION,2022-03-09
NCT01797120,FA,NCT01797120-0062,309,OCCUR,Occurrence Indicator,PROGRESSIVE DISEASE,Y,Y,INDUCTION,2022-03-09
NCT01797120,FA,NCT01797120-0062,310,OCCUR,Occurrence Indicator,LOST TO FOLLOW-UP,Y,Y,FOLLOW-UP,2022-07-30
NCT01797120,FA,NCT01797120-0063,311,OCCUR,Occurrence Indicator,INFORMED CONSENT OBTAINED,Y,Y,,2021-06-06
NCT01797120,FA,NCT01797120-0063,312,OCCUR,Occurrence Indicator,RANDOMIZED,Y,Y,,2021-06-18
NCT01797120,FA,NCT01797120-0063,313,OCCUR,Occurrence Indicator,PROGRESSIVE DISEASE,Y,Y,INDUCTION,2021-09-11
NCT01797120,FA,NCT01797120-0063,314,OCCUR,Occurrence Indicator,PROGRESSIVE DISEASE,Y,Y,INDUCTION,2021-09-11
NCT01797120,FA,NCT01797120-0063,315,OCCUR,Occurrence Indicator,DEATH,Y,Y,FOLLOW-UP,2022-01-10
NCT01797120,FA,NCT01797120-0064,316,OCCUR,Occurrence Indicator,INFORMED CONSENT OBTAINED,Y,Y,,2021-06-18
NCT01797120,FA,NCT01797120-0064,317,OCCUR,Occurrence Indicator,RANDOMIZED,Y,Y,,2021-06-26
NCT01797120,FA,NCT01797120-0064,318,OCCUR,Occurrence Indicator,PROGRESSIVE DISEASE,Y,Y,INDUCTION,2021-09-19
NCT01797120,FA,NCT01797120-0064,319,OCCUR,Occurrence Indicator,PROGRESSIVE DISEASE,Y,Y,INDUCTION,2021-09-19
NCT01797120,FA,NCT01797120-0064,320,OCCUR,Occurrence Indicator,DEATH,Y,Y,FOLLOW-UP,2021-11-04
NCT01797120,FA,NCT01797120-0065,321,OCCUR,Occurrence Indicator,INFORMED CONSENT OBTAINED,Y,Y,,2022-06-08
NCT01797120,FA,NCT01797120-0065,322,OCCUR,Occurrence Indicator,RANDOMIZED,Y,Y,,2022-06-22
NCT01797120,FA,NCT01797120-0065,323,OCCUR,Occurrence Indicator,LOST TO FOLLOW-UP,Y,Y,CONTINUATION,2023-06-27
NCT01797120,FA,NCT01797120-0065,324,OCCUR,Occurrence Indicator,LOST TO FOLLOW-UP,Y,Y,CONTINUATION,2023-06-27
NCT01797120,FA,NCT01797120-0065,325,OCCUR,Occurrence Indicator,LOST TO FOLLOW-UP,Y,Y,FOLLOW-UP,2023-09-07
NCT01797120,FA,NCT01797120-0066,326,OCCUR,Occurrence Indicator,INFORMED CONSENT OBTAINED,Y,Y,,2021-11-05
NCT01797120,FA,NCT01797120-0066,327,OCCUR,Occurrence Indicator,RANDOMIZED,Y,Y,,2021-11-20
NCT01797120,FA,NCT01797120-0066,328,OCCUR,Occurrence Indicator,PROGRESSIVE DISEASE,Y,Y,INDUCTION,2022-05-08
NCT01797120,FA,NCT01797120-0066,329,OCCUR,Occurrence Indicator,PROGRESSIVE DISEASE,Y,Y,INDUCTION,2022-05-08
NCT01797120,FA,NCT01797120-0066,330,OCCUR,Occurrence Indicator,DEATH,Y,Y,FOLLOW-UP,2024-04-28
NCT01797120,FA,NCT01797120-0067,331,OCCUR,Occurrence Indicator,INFORMED CONSENT OBTAINED,Y,Y,,2022-04-27
NCT01797120,FA,NCT01797120-0067,332,OCCUR,Occurrence Indicator,RANDOMIZED,Y,Y,,2022-05-24
NCT01797120,FA,NCT01797120-0067,333,OCCUR,Occurrence Indicator,PROGRESSIVE DISEASE,Y,Y,CONTINUATION,2024-06-19
NCT01797120,FA,NCT01797120-0067,334,OCCUR,Occurrence Indicator,PROGRESSIVE DISEASE,Y,Y,CONTINUATION,2024-06-19
NCT01797120,FA,NCT01797120-0067,335,OCCUR,Occurrence Indicator,DEATH,Y,Y,FOLLOW-UP,2024-10-23
NCT01797120,FA,NCT01797120-0068,336,OCCUR,Occurrence Indicator,INFORMED CONSENT OBTAINED,Y,Y,,2021-04-11
NCT01797120,FA,NCT01797120-0068,337,OCCUR,Occurrence Indicator,RANDOMIZED,Y,Y,,2021-04-25
NCT01797120,FA,NCT01797120-0068,338,OCCUR,Occurrence Indicator,PROGRESSIVE DISEASE,Y,Y,INDUCTION,2022-01-03
NCT01797120,FA,NCT01797120-0068,339,OCCUR,Occurrence Indicator,PROGRESSIVE DISEASE,Y,Y,INDUCTION,2022-01-03
NCT01797120,FA,NCT01797120-0068,340,OCCUR,Occurrence Indicator,DEATH,Y,Y,FOLLOW-UP,2022-03-01
NCT01797120,FA,NCT01797120-0069,341,OCCUR,Occurrence Indicator,INFORMED CONSENT OBTAINED,Y,Y,,2021-01-20
NCT01797120,FA,NCT01797120-0069,342,OCCUR,Occurrence Indicator,RANDOMIZED,Y,Y,,2021-01-30
NCT01797120,FA,NCT01797120-0069,343,OCCUR,Occurrence Indicator,PROGRESSIVE DISEASE,Y,Y,CONTINUATION,2022-06-19
NCT01797120,FA,NCT01797120-0069,344,OCCUR,Occurrence Indicator,PROGRESSIVE DISEASE,Y,Y,CONTINUATION,2022-06-19
NCT01797120,FA,NCT01797120-0069,345,OCCUR,Occurrence Indicator,DEATH,Y,Y,FOLLOW-UP,2022-12-03
NCT01797120,FA,NCT01797120-0070,346,OCCUR,Occurrence Indicator,INFORMED CONSENT OBTAINED,Y,Y,,2021-09-19
NCT01797120,FA,NCT01797120-0070,347,OCCUR,Occurrence Indicator,RANDOMIZED,Y,Y,,2021-10-17
NCT01797120,FA,NCT01797120-0070,348,OCCUR,Occurrence Indicator,PROGRESSIVE DISEASE,Y,Y,CONTINUATION,2022-09-19
NCT01797120,FA,NCT01797120-0070,349,OCCUR,Occurrence Indicator,PROGRESSIVE DISEASE,Y,Y,CONTINUATION,2022-09-19
NCT01797120,FA,NCT01797120-0070,350,OCCUR,Occurrence Indicator,WITHDRAWAL BY SUBJECT,Y,Y,FOLLOW-UP,2023-01-11
NCT01797120,FA,NCT01797120-0071,351,OCCUR,Occurrence Indicator,INFORMED CONSENT OBTAINED,Y,Y,,2021-05-08
NCT01797120,FA,NCT01797120-0071,352,OCCUR,Occurrence Indicator,RANDOMIZED,Y,Y,,2021-05-27
NCT01797120,FA,NCT01797120-0071,353,OCCUR,Occurrence Indicator,PROGRESSIVE DISEASE,Y,Y,INDUCTION,2021-08-20
NCT01797120,FA,NCT01797120-0071,354,OCCUR,Occurrence Indicator,PROGRESSIVE DISEASE,Y,Y,INDUCTION,2021-08-20
NCT01797120,FA,NCT01797120-0071,355,OCCUR,Occurrence Indicator,DEATH,Y,Y,FOLLOW-UP,2021-10-18
NCT01797120,FA,NCT01797120-0072,356,OCCUR,Occurrence Indicator,INFORMED CONSENT OBTAINED,Y,Y,,2021-09-21
NCT01797120,FA,NCT01797120-0072,357,OCCUR,Occurrence Indicator,RANDOMIZED,Y,Y,,2021-10-01
NCT01797120,FA,NCT01797120-0072,358,OCCUR,Occurrence Indicator,PROGRESSIVE DISEASE,Y,Y,INDUCTION,2022-06-11
NCT01797120,FA,NCT01797120-0072,359,OCCUR,Occurrence Indicator,PROGRESSIVE DISEASE,Y,Y,INDUCTION,2022-06-11
NCT01797120,FA,NCT01797120-0072,360,OCCUR,Occurrence Indicator,DEATH,Y,Y,FOLLOW-UP,2022-10-13
NCT01797120,FA,NCT01797120-0073,361,OCCUR,Occurrence Indicator,INFORMED CONSENT OBTAINED,Y,Y,,2021-07-28
NCT01797120,FA,NCT01797120-0073,362,OCCUR,Occurrence Indicator,RANDOMIZED,Y,Y,,2021-08-10
NCT01797120,FA,NCT01797120-0073,363,OCCUR,Occurrence Indicator,PROGRESSIVE DISEASE,Y,Y,INDUCTION,2022-01-26
NCT01797120,FA,NCT01797120-0073,364,OCCUR,Occurrence Indicator,PROGRESSIVE DISEASE,Y,Y,INDUCTION,2022-01-26
NCT01797120,FA,NCT01797120-0073,365,OCCUR,Occurrence Indicator,DEATH,Y,Y,FOLLOW-UP,2022-06-17
NCT01797120,FA,NCT01797120-0074,366,OCCUR,Occurrence Indicator,INFORMED CONSENT OBTAINED,Y,Y,,2021-11-10
NCT01797120,FA,NCT01797120-0074,367,OCCUR,Occurrence Indicator,RANDOMIZED,Y,Y,,2021-12-07
NCT01797120,FA,NCT01797120-0074,368,OCCUR,Occurrence Indicator,PROGRESSIVE DISEASE,Y,Y,INDUCTION,2022-05-25
NCT01797120,FA,NCT01797120-0074,369,OCCUR,Occurrence Indicator,PROGRESSIVE DISEASE,Y,Y,INDUCTION,2022-05-25
NCT01797120,FA,NCT01797120-0074,370,OCCUR,Occurrence Indicator,DEATH,Y,Y,FOLLOW-UP,2022-06-22
NCT01797120,FA,NCT01797120-0075,371,OCCUR,Occurrence Indicator,INFORMED CONSENT OBTAINED,Y,Y,,2022-05-11
NCT01797120,FA,NCT01797120-0075,372,OCCUR,Occurrence Indicator,RANDOMIZED,Y,Y,,2022-05-25
NCT01797120,FA,NCT01797120-0075,373,OCCUR,Occurrence Indicator,PROGRESSIVE DISEASE,Y,Y,INDUCTION,2022-11-10
NCT01797120,FA,NCT01797120-0075,374,OCCUR,Occurrence Indicator,PROGRESSIVE DISEASE,Y,Y,INDUCTION,2022-11-10
NCT01797120,FA,NCT01797120-0075,375,OCCUR,Occurrence Indicator,DEATH,Y,Y,FOLLOW-UP,2023-08-12
NCT01797120,FA,NCT01797120-0076,376,OCCUR,Occurrence Indicator,INFORMED CONSENT OBTAINED,Y,Y,,2022-05-04
NCT01797120,FA,NCT01797120-0076,377,OCCUR,Occurrence Indicator,RANDOMIZED,Y,Y,,2022-05-30
NCT01797120,FA,NCT01797120-0076,378,OCCUR,Occurrence Indicator,PROGRESSIVE DISEASE,Y,Y,CONTINUATION,2023-07-25
NCT01797120,FA,NCT01797120-0076,379,OCCUR,Occurrence Indicator,PROGRESSIVE DISEASE,Y,Y,CONTINUATION,2023-07-25
NCT01797120,FA,NCT01797120-0076,380,OCCUR,Occurrence Indicator,DEATH,Y,Y,FOLLOW-UP,2023-08-30
NCT01797120,FA,NCT01797120-0077,381,OCCUR,Occurrence Indicator,INFORMED CONSENT OBTAINED,Y,Y,,2021-03-04
NCT01797120,FA,NCT01797120-0077,382,OCCUR,Occurrence Indicator,RANDOMIZED,Y,Y,,2021-03-11
NCT01797120,FA,NCT01797120-0077,383,OCCUR,Occurrence Indicator,LOST TO FOLLOW-UP,Y,Y,INDUCTION,2021-09-16
NCT01797120,FA,NCT01797120-0077,384,OCCUR,Occurrence Indicator,LOST TO FOLLOW-UP,Y,Y,INDUCTION,2021-09-16
NCT01797120,FA,NCT01797120-0077,385,OCCUR,Occurrence Indicator,LOST TO FOLLOW-UP,Y,Y,FOLLOW-UP,2021-11-05
NCT01797120,FA,NCT01797120-0078,386,OCCUR,Occurrence Indicator,INFORMED CONSENT OBTAINED,Y,Y,,2021-12-12
NCT01797120,FA,NCT01797120-0078,387,OCCUR,Occurrence Indicator,RANDOMIZED,Y,Y,,2021-12-24
NCT01797120,FA,NCT01797120-0078,388,OCCUR,Occurrence Indicator,PROGRESSIVE DISEASE,Y,Y,INDUCTION,2022-06-11
NCT01797120,FA,NCT01797120-0078,389,OCCUR,Occurrence Indicator,PROGRESSIVE DISEASE,Y,Y,INDUCTION,2022-06-11
NCT01797120,FA,NCT01797120-0078,390,OCCUR,Occurrence Indicator,LOST TO FOLLOW-UP,Y,Y,FOLLOW-UP,2022-09-08
NCT01797120,FA,NCT01797120-0079,391,OCCUR,Occurrence Indicator,INFORMED CONSENT OBTAINED,Y,Y,,2022-06-23
NCT01797120,FA,NCT01797120-0079,392,OCCUR,Occurrence Indicator,RANDOMIZED,Y,Y,,2022-07-11
NCT01797120,FA,NCT01797120-0079,393,OCCUR,Occurrence Indicator,PROGRESSIVE DISEASE,Y,Y,CONTINUATION,2025-09-30
NCT01797120,FA,NCT01797120-0079,394,OCCUR,Occurrence Indicator,PROGRESSIVE DISEASE,Y,Y,CONTINUATION,2025-09-30
NCT01797120,FA,NCT01797120-0079,395,OCCUR,Occurrence Indicator,LOST TO FOLLOW-UP,Y,Y,FOLLOW-UP,2026-03-25
NCT01797120,FA,NCT01797120-0080,396,OCCUR,Occurrence Indicator,INFORMED CONSENT OBTAINED,Y,Y,,2021-11-03
NCT01797120,FA,NCT01797120-0080,397,OCCUR,Occurrence Indicator,RANDOMIZED,Y,Y,,2021-11-19
NCT01797120,FA,NCT01797120-0080,398,OCCUR,Occurrence Indicator,PROGRESSIVE DISEASE,Y,Y,INDUCTION,2022-02-12
NCT01797120,FA,NCT01797120-0080,399,OCCUR,Occurrence Indicator,PROGRESSIVE DISEASE,Y,Y,INDUCTION,2022-02-12
NCT01797120,FA,NCT01797120-0080,400,OCCUR,Occurrence Indicator,DEATH,Y,Y,FOLLOW-UP,2022-02-14
NCT01797120,FA,NCT01797120-0081,401,OCCUR,Occurrence Indicator,INFORMED CONSENT OBTAINED,Y,Y,,2022-08-21
NCT01797120,FA,NCT01797120-0081,402,OCCUR,Occurrence Indicator,RANDOMIZED,Y,Y,,2022-09-16
NCT01797120,FA,NCT01797120-0081,403,OCCUR,Occurrence Indicator,PROGRESSIVE DISEASE,Y,Y,CONTINUATION,2024-04-27
NCT01797120,FA,NCT01797120-0081,404,OCCUR,Occurrence Indicator,PROGRESSIVE DISEASE,Y,Y,CONTINUATION,2024-04-27
NCT01797120,FA,NCT01797120-0081,405,OCCUR,Occurrence Indicator,DEATH,Y,Y,FOLLOW-UP,2024-08-24
NCT01797120,FA,NCT01797120-0082,406,OCCUR,Occurrence Indicator,INFORMED CONSENT OBTAINED,Y,Y,,2021-03-19
NCT01797120,FA,NCT01797120-0082,407,OCCUR,Occurrence Indicator,RANDOMIZED,Y,Y,,2021-04-02
NCT01797120,FA,NCT01797120-0082,408,OCCUR,Occurrence Indicator,PROGRESSIVE DISEASE,Y,Y,CONTINUATION,2022-08-20
NCT01797120,FA,NCT01797120-0082,409,OCCUR,Occurrence Indicator,PROGRESSIVE DISEASE,Y,Y,CONTINUATION,2022-08-20
NCT01797120,FA,NCT01797120-0082,410,OCCUR,Occurrence Indicator,LOST TO FOLLOW-UP,Y,Y,FOLLOW-UP,2022-10-14
NCT01797120,FA,NCT01797120-0083,411,OCCUR,Occurrence Indicator,INFORMED CONSENT OBTAINED,Y,Y,,2021-11-10
NCT01797120,FA,NCT01797120-0083,412,OCCUR,Occurrence Indicator,RANDOMIZED,Y,Y,,2021-12-08
NCT01797120,FA,NCT01797120-0083,413,OCCUR,Occurrence Indicator,PROGRESSIVE DISEASE,Y,Y,CONTINUATION,2023-07-20
NCT01797120,FA,NCT01797120-0083,414,OCCUR,Occurrence Indicator,PROGRESSIVE DISEASE,Y,Y,CONTINUATION,2023-07-20
NCT01797120,FA,NCT01797120-0083,415,OCCUR,Occurrence Indicator,DEATH,Y,Y,FOLLOW-UP,2023-11-11
NCT01797120,FA,NCT01797120-0084,416,OCCUR,Occurrence Indicator,INFORMED CONSENT OBTAINED,Y,Y,,2022-02-16
NCT01797120,FA,NCT01797120-0084,417,OCCUR,Occurrence Indicator,RANDOMIZED,Y,Y,,2022-02-28
NCT01797120,FA,NCT01797120-0084,418,OCCUR,Occurrence Indicator,PROGRESSIVE DISEASE,Y,Y,CONTINUATION,2023-01-31
NCT01797120,FA,NCT01797120-0084,419,OCCUR,Occurrence Indicator,PROGRESSIVE DISEASE,Y,Y,CONTINUATION,2023-01-31
NCT01797120,FA,NCT01797120-0084,420,OCCUR,Occurrence Indicator,DEATH,Y,Y,FOLLOW-UP,2023-04-21
NCT01797120,FA,NCT01797120-0085,421,OCCUR,Occurrence Indicator,INFORMED CONSENT OBTAINED,Y,Y,,2022-06-21
NCT01797120,FA,NCT01797120-0085,422,OCCUR,Occurrence Indicator,RANDOMIZED,Y,Y,,2022-07-06
NCT01797120,FA,NCT01797120-0085,423,OCCUR,Occurrence Indicator,PROGRESSIVE DISEASE,Y,Y,INDUCTION,2022-09-29
NCT01797120,FA,NCT01797120-0085,424,OCCUR,Occurrence Indicator,PROGRESSIVE DISEASE,Y,Y,INDUCTION,2022-09-29
NCT01797120,FA,NCT01797120-0085,425,OCCUR,Occurrence Indicator,DEATH,Y,Y,FOLLOW-UP,2023-07-17
NCT01797120,FA,NCT01797120-0086,426,OCCUR,Occurrence Indicator,INFORMED CONSENT OBTAINED,Y,Y,,2022-10-07
NCT01797120,FA,NCT01797120-0086,427,OCCUR,Occurrence Indicator,RANDOMIZED,Y,Y,,2022-10-25
NCT01797120,FA,NCT01797120-0086,428,OCCUR,Occurrence Indicator,PROGRESSIVE DISEASE,Y,Y,CONTINUATION,2024-08-28
NCT01797120,FA,NCT01797120-0086,429,OCCUR,Occurrence Indicator,PROGRESSIVE DISEASE,Y,Y,CONTINUATION,2024-08-28
NCT01797120,FA,NCT01797120-0086,430,OCCUR,Occurrence Indicator,DEATH,Y,Y,FOLLOW-UP,2025-02-07
NCT01797120,FA,NCT01797120-0087,431,OCCUR,Occurrence Indicator,INFORMED CONSENT OBTAINED,Y,Y,,2022-01-29
NCT01797120,FA,NCT01797120-0087,432,OCCUR,Occurrence Indicator,RANDOMIZED,Y,Y,,2022-02-19
NCT01797120,FA,NCT01797120-0087,433,OCCUR,Occurrence Indicator,PROGRESSIVE DISEASE,Y,Y,INDUCTION,2022-05-15
NCT01797120,FA,NCT01797120-0087,434,OCCUR,Occurrence Indicator,PROGRESSIVE DISEASE,Y,Y,INDUCTION,2022-05-15
NCT01797120,FA,NCT01797120-0087,435,OCCUR,Occurrence Indicator,DEATH,Y,Y,FOLLOW-UP,2022-05-20
NCT01797120,FA,NCT01797120-0088,436,OCCUR,Occurrence Indicator,INFORMED CONSENT OBTAINED,Y,Y,,2022-10-13
NCT01797120,FA,NCT01797120-0088,437,OCCUR,Occurrence Indicator,RANDOMIZED,Y,Y,,2022-10-20
NCT01797120,FA,NCT01797120-0088,438,OCCUR,Occurrence Indicator,PROGRESSIVE DISEASE,Y,Y,INDUCTION,2023-04-07
NCT01797120,FA,NCT01797120-0088,439,OCCUR,Occurrence Indicator,PROGRESSIVE DISEASE,Y,Y,INDUCTION,2023-04-07
NCT01797120,FA,NCT01797120-0088,440,OCCUR,Occurrence Indicator,DEATH,Y,Y,FOLLOW-UP,2023-11-09
NCT01797120,FA,NCT01797120-0089,441,OCCUR,Occurrence Indicator,INFORMED CONSENT OBTAINED,Y,Y,,2022-11-27
NCT01797120,FA,NCT01797120-0089,442,OCCUR,Occurrence Indicator,RANDOMIZED,Y,Y,,2022-12-12
NCT01797120,FA,NCT01797120-0089,443,OCCUR,Occurrence Indicator,PROGRESSIVE DISEASE,Y,Y,INDUCTION,2023-08-22
NCT01797120,FA,NCT01797120-0089,444,OCCUR,Occurrence Indicator,PROGRESSIVE DISEASE,Y,Y,INDUCTION,2023-08-22
NCT01797120,FA,NCT01797120-0089,445,OCCUR,Occurrence Indicator,LOST TO FOLLOW-UP,Y,Y,FOLLOW-UP,2023-09-29
NCT01797120,FA,NCT01797120-0090,446,OCCUR,Occurrence Indicator,INFORMED CONSENT OBTAINED,Y,Y,,2021-09-06
NCT01797120,FA,NCT01797120-0090,447,OCCUR,Occurrence Indicator,RANDOMIZED,Y,Y,,2021-10-02
NCT01797120,FA,NCT01797120-0090,448,OCCUR,Occurrence Indicator,PROGRESSIVE DISEASE,Y,Y,INDUCTION,2021-12-26
NCT01797120,FA,NCT01797120-0090,449,OCCUR,Occurrence Indicator,PROGRESSIVE DISEASE,Y,Y,INDUCTION,2021-12-26
NCT01797120,FA,NCT01797120-0090,450,OCCUR,Occurrence Indicator,DEATH,Y,Y,FOLLOW-UP,2022-03-27
NCT01797120,FA,NCT01797120-0091,451,OCCUR,Occurrence Indicator,INFORMED CONSENT OBTAINED,Y,Y,,2021-01-31
NCT01797120,FA,NCT01797120-0091,452,OCCUR,Occurrence Indicator,RANDOMIZED,Y,Y,,2021-02-13
NCT01797120,FA,NCT01797120-0091,453,OCCUR,Occurrence Indicator,PROGRESSIVE DISEASE,Y,Y,CONTINUATION,2022-07-03
NCT01797120,FA,NCT01797120-0091,454,OCCUR,Occurrence Indicator,PROGRESSIVE DISEASE,Y,Y,CONTINUATION,2022-07-03
NCT01797120,FA,NCT01797120-0091,455,OCCUR,Occurrence Indicator,LOST TO FOLLOW-UP,Y,Y,FOLLOW-UP,2022-10-07
NCT01797120,FA,NCT01797120-0092,456,OCCUR,Occurrence Indicator,INFORMED CONSENT OBTAINED,Y,Y,,2021-03-08
NCT01797120,FA,NCT01797120-0092,457,OCCUR,Occurrence Indicator,RANDOMIZED,Y,Y,,2021-03-25
NCT01797120,FA,NCT01797120-0092,458,OCCUR,Occurrence Indicator,PROGRESSIVE DISEASE,Y,Y,INDUCTION,2021-09-10
NCT01797120,FA,NCT01797120-0092,459,OCCUR,Occurrence Indicator,PROGRESSIVE DISEASE,Y,Y,INDUCTION,2021-09-10
NCT01797120,FA,NCT01797120-0092,460,OCCUR,Occurrence Indicator,LOST TO FOLLOW-UP,Y,Y,FOLLOW-UP,2021-11-21
NCT01797120,FA,NCT01797120-0093,461,OCCUR,Occurrence Indicator,INFORMED CONSENT OBTAINED,Y,Y,,2022-02-12
NCT01797120,FA,NCT01797120-0093,462,OCCUR,Occurrence Indicator,RANDOMIZED,Y,Y,,2022-03-10
NCT01797120,FA,NCT01797120-0093,463,OCCUR,Occurrence Indicator,PROGRESSIVE DISEASE,Y,Y,INDUCTION,2022-06-03
NCT01797120,FA,NCT01797120-0093,464,OCCUR,Occurrence Indicator,PROGRESSIVE DISEASE,Y,Y,INDUCTION,2022-06-03
NCT01797120,FA,NCT01797120-0093,465,OCCUR,Occurrence Indicator,DEATH,Y,Y,FOLLOW-UP,2023-04-13
NCT01797120,FA,NCT01797120-0094,466,OCCUR,Occurrence Indicator,INFORMED CONSENT OBTAINED,Y,Y,,2021-03-26
NCT01797120,FA,NCT01797120-0094,467,OCCUR,Occurrence Indicator,RANDOMIZED,Y,Y,,2021-04-04
NCT01797120,FA,NCT01797120-0094,468,OCCUR,Occurrence Indicator,PROGRESSIVE DISEASE,Y,Y,INDUCTION,2021-09-20
NCT01797120,FA,NCT01797120-0094,469,OCCUR,Occurrence Indicator,PROGRESSIVE DISEASE,Y,Y,INDUCTION,2021-09-20
NCT01797120,FA,NCT01797120-0094,470,OCCUR,Occurrence Indicator,LOST TO FOLLOW-UP,Y,Y,FOLLOW-UP,2021-11-24
NCT01797120,FA,NCT01797120-0095,471,OCCUR,Occurrence Indicator,INFORMED CONSENT OBTAINED,Y,Y,,2021-06-17
NCT01797120,FA,NCT01797120-0095,472,OCCUR,Occurrence Indicator,RANDOMIZED,Y,Y,,2021-06-24
NCT01797120,FA,NCT01797120-0095,473,OCCUR,Occurrence Indicator,PROGRESSIVE DISEASE,Y,Y,INDUCTION,2021-12-10
NCT01797120,FA,NCT01797120-0095,474,OCCUR,Occurrence Indicator,PROGRESSIVE DISEASE,Y,Y,INDUCTION,2021-12-10
NCT01797120,FA,NCT01797120-0095,475,OCCUR,Occurrence Indicator,DEATH,Y,Y,FOLLOW-UP,2022-05-02
NCT01797120,FA,NCT01797120-0096,476,OCCUR,Occurrence Indicator,INFORMED CONSENT OBTAINED,Y,Y,,2022-01-15
NCT01797120,FA,NCT01797120-0096,477,OCCUR,Occurrence Indicator,RANDOMIZED,Y,Y,,2022-02-10
NCT01797120,FA,NCT01797120-0096,478,OCCUR,Occurrence Indicator,PROGRESSIVE DISEASE,Y,Y,INDUCTION,2022-10-21
NCT01797120,FA,NCT01797120-0096,479,OCCUR,Occurrence Indicator,PROGRESSIVE DISEASE,Y,Y,INDUCTION,2022-10-21
NCT01797120,FA,NCT01797120-0096,480,OCCUR,Occurrence Indicator,LOST TO FOLLOW-UP,Y,Y,FOLLOW-UP,2022-12-07
NCT01797120,FA,NCT01797120-0097,481,OCCUR,Occurrence Indicator,INFORMED CONSENT OBTAINED,Y,Y,,2021-06-30
NCT01797120,FA,NCT01797120-0097,482,OCCUR,Occurrence Indicator,RANDOMIZED,Y,Y,,2021-07-21
NCT01797120,FA,NCT01797120-0097,483,OCCUR,Occurrence Indicator,PROGRESSIVE DISEASE,Y,Y,INDUCTION,2021-10-14
NCT01797120,FA,NCT01797120-0097,484,OCCUR,Occurrence Indicator,PROGRESSIVE DISEASE,Y,Y,INDUCTION,2021-10-14
NCT01797120,FA,NCT01797120-0097,485,OCCUR,Occurrence Indicator,LOST TO FOLLOW-UP,Y,Y,FOLLOW-UP,2022-03-03
NCT01797120,FA,NCT01797120-0098,486,OCCUR,Occurrence Indicator,INFORMED CONSENT OBTAINED,Y,Y,,2022-05-07
NCT01797120,FA,NCT01797120-0098,487,OCCUR,Occurrence Indicator,RANDOMIZED,Y,Y,,2022-05-14
NCT01797120,FA,NCT01797120-0098,488,OCCUR,Occurrence Indicator,PROGRESSIVE DISEASE,Y,Y,INDUCTION,2022-08-07
NCT01797120,FA,NCT01797120-0098,489,OCCUR,Occurrence Indicator,PROGRESSIVE DISEASE,Y,Y,INDUCTION,2022-08-07
NCT01797120,FA,NCT01797120-0098,490,OCCUR,Occurrence Indicator,LOST TO FOLLOW-UP,Y,Y,FOLLOW-UP,2023-01-17
NCT01797120,FA,NCT01797120-0099,491,OCCUR,Occurrence Indicator,INFORMED CONSENT OBTAINED,Y,Y,,2022-03-31
NCT01797120,FA,NCT01797120-0099,492,OCCUR,Occurrence Indicator,RANDOMIZED,Y,Y,,2022-04-26
NCT01797120,FA,NCT01797120-0099,493,OCCUR,Occurrence Indicator,LOST TO FOLLOW-UP,Y,Y,INDUCTION,2023-01-07
NCT01797120,FA,NCT01797120-0099,494,OCCUR,Occurrence Indicator,LOST TO FOLLOW-UP,Y,Y,INDUCTION,2023-01-07
NCT01797120,FA,NCT01797120-0099,495,OCCUR,Occurrence Indicator,LOST TO FOLLOW-UP,Y,Y,FOLLOW-UP,2023-04-26
NCT01797120,FA,NCT01797120-0100,496,OCCUR,Occurrence Indicator,INFORMED CONSENT OBTAINED,Y,Y,,2021-11-13
NCT01797120,FA,NCT01797120-0100,497,OCCUR,Occurrence Indicator,RANDOMIZED,Y,Y,,2021-11-26
NCT01797120,FA,NCT01797120-0100,498,OCCUR,Occurrence Indicator,PROGRESSIVE DISEASE,Y,Y,INDUCTION,2022-02-19
NCT01797120,FA,NCT01797120-0100,499,OCCUR,Occurrence Indicator,PROGRESSIVE DISEASE,Y,Y,INDUCTION,2022-02-19
NCT01797120,FA,NCT01797120-0100,500,OCCUR,Occurrence Indicator,WITHDRAWAL BY SUBJECT,Y,Y,FOLLOW-UP,2022-08-15
NCT01797120,FA,NCT01797120-0101,501,OCCUR,Occurrence Indicator,INFORMED CONSENT OBTAINED,Y,Y,,2022-06-17
NCT01797120,FA,NCT01797120-0101,502,OCCUR,Occurrence Indicator,RANDOMIZED,Y,Y,,2022-06-25
NCT01797120,FA,NCT01797120-0101,503,OCCUR,Occurrence Indicator,PROGRESSIVE DISEASE,Y,Y,INDUCTION,2022-09-18
NCT01797120,FA,NCT01797120-0101,504,OCCUR,Occurrence Indicator,PROGRESSIVE DISEASE,Y,Y,INDUCTION,2022-09-18
NCT01797120,FA,NCT01797120-0101,505,OCCUR,Occurrence Indicator,DEATH,Y,Y,FOLLOW-UP,2024-01-07
NCT01797120,FA,NCT01797120-0102,506,OCCUR,Occurrence Indicator,INFORMED CONSENT OBTAINED,Y,Y,,2021-07-10
NCT01797120,FA,NCT01797120-0102,507,OCCUR,Occurrence Indicator,RANDOMIZED,Y,Y,,2021-07-29
NCT01797120,FA,NCT01797120-0102,508,OCCUR,Occurrence Indicator,PROGRESSIVE DISEASE,Y,Y,INDUCTION,2022-01-14
NCT01797120,FA,NCT01797120-0102,509,OCCUR,Occurrence Indicator,PROGRESSIVE DISEASE,Y,Y,INDUCTION,2022-01-14
NCT01797120,FA,NCT01797120-0102,510,OCCUR,Occurrence Indicator,LOST TO FOLLOW-UP,Y,Y,FOLLOW-UP,2022-05-21
NCT01797120,FA,NCT01797120-0103,511,OCCUR,Occurrence Indicator,INFORMED CONSENT OBTAINED,Y,Y,,2022-08-16
NCT01797120,FA,NCT01797120-0103,512,OCCUR,Occurrence Indicator,RANDOMIZED,Y,Y,,2022-09-10
NCT01797120,FA,NCT01797120-0103,513,OCCUR,Occurrence Indicator,LOST TO FOLLOW-UP,Y,Y,CONTINUATION,2023-10-08
NCT01797120,FA,NCT01797120-0103,514,OCCUR,Occurrence Indicator,LOST TO FOLLOW-UP,Y,Y,CONTINUATION,2023-10-08
NCT01797120,FA,NCT01797120-0103,515,OCCUR,Occurrence Indicator,LOST TO FOLLOW-UP,Y,Y,FOLLOW-UP,2024-01-05
NCT01797120,FA,NCT01797120-0104,516,OCCUR,Occurrence Indicator,INFORMED CONSENT OBTAINED,Y,Y,,2022-07-10
NCT01797120,FA,NCT01797120-0104,517,OCCUR,Occurrence Indicator,RANDOMIZED,Y,Y,,2022-07-30
NCT01797120,FA,NCT01797120-0104,518,OCCUR,Occurrence Indicator,PROGRESSIVE DISEASE,Y,Y,INDUCTION,2023-04-09
NCT01797120,FA,NCT01797120-0104,519,OCCUR,Occurrence Indicator,PROGRESSIVE DISEASE,Y,Y,INDUCTION,2023-04-09
NCT01797120,FA,NCT01797120-0104,520,OCCUR,Occurrence Indicator,DEATH,Y,Y,FOLLOW-UP,2023-12-11
NCT01797120,FA,NCT01797120-0105,521,OCCUR,Occurrence Indicator,INFORMED CONSENT OBTAINED,Y,Y,,2021-01-01
NCT01797120,FA,NCT01797120-0105,522,OCCUR,Occurrence Indicator,RANDOMIZED,Y,Y,,2021-01-17
NCT01797120,FA,NCT01797120-0105,523,OCCUR,Occurrence Indicator,PROGRESSIVE DISEASE,Y,Y,INDUCTION,2021-07-05
NCT01797120,FA,NCT01797120-0105,524,OCCUR,Occurrence Indicator,PROGRESSIVE DISEASE,Y,Y,INDUCTION,2021-07-05
NCT01797120,FA,NCT01797120-0105,525,OCCUR,Occurrence Indicator,DEATH,Y,Y,FOLLOW-UP,2022-04-08
NCT01797120,FA,NCT01797120-0106,526,OCCUR,Occurrence Indicator,INFORMED CONSENT OBTAINED,Y,Y,,2021-04-06
NCT01797120,FA,NCT01797120-0106,527,OCCUR,Occurrence Indicator,RANDOMIZED,Y,Y,,2021-04-17
NCT01797120,FA,NCT01797120-0106,528,OCCUR,Occurrence Indicator,PROGRESSIVE DISEASE,Y,Y,INDUCTION,2021-07-11
NCT01797120,FA,NCT01797120-0106,529,OCCUR,Occurrence Indicator,PROGRESSIVE DISEASE,Y,Y,INDUCTION,2021-07-11
NCT01797120,FA,NCT01797120-0106,530,OCCUR,Occurrence Indicator,DEATH,Y,Y,FOLLOW-UP,2022-05-10
NCT01797120,FA,NCT01797120-0107,531,OCCUR,Occurrence Indicator,INFORMED CONSENT OBTAINED,Y,Y,,2021-05-21
NCT01797120,FA,NCT01797120-0107,532,OCCUR,Occurrence Indicator,RANDOMIZED,Y,Y,,2021-06-14
NCT01797120,FA,NCT01797120-0107,533,OCCUR,Occurrence Indicator,PROGRESSIVE DISEASE,Y,Y,INDUCTION,2021-11-30
NCT01797120,FA,NCT01797120-0107,534,OCCUR,Occurrence Indicator,PROGRESSIVE DISEASE,Y,Y,INDUCTION,2021-11-30
NCT01797120,FA,NCT01797120-0107,535,OCCUR,Occurrence Indicator,DEATH,Y,Y,FOLLOW-UP,2022-04-21
NCT01797120,FA,NCT01797120-0108,536,OCCUR,Occurrence Indicator,INFORMED CONSENT OBTAINED,Y,Y,,2022-08-20
NCT01797120,FA,NCT01797120-0108,537,OCCUR,Occurrence Indicator,RANDOMIZED,Y,Y,,2022-08-30
NCT01797120,FA,NCT01797120-0108,538,OCCUR,Occurrence Indicator,PROGRESSIVE DISEASE,Y,Y,INDUCTION,2023-02-15
NCT01797120,FA,NCT01797120-0108,539,OCCUR,Occurrence Indicator,PROGRESSIVE DISEASE,Y,Y,INDUCTION,2023-02-15
NCT01797120,FA,NCT01797120-0108,540,OCCUR,Occurrence Indicator,DEATH,Y,Y,FOLLOW-UP,2023-03-05
NCT01797120,FA,NCT01797120-0109,541,OCCUR,Occurrence Indicator,INFORMED CONSENT OBTAINED,Y,Y,,2022-06-12
NCT01797120,FA,NCT01797120-0109,542,OCCUR,Occurrence Indicator,RANDOMIZED,Y,Y,,2022-06-21
NCT01797120,FA,NCT01797120-0109,543,OCCUR,Occurrence Indicator,PROGRESSIVE DISEASE,Y,Y,INDUCTION,2022-09-14
NCT01797120,FA,NCT01797120-0109,544,OCCUR,Occurrence Indicator,PROGRESSIVE DISEASE,Y,Y,INDUCTION,2022-09-14
NCT01797120,FA,NCT01797120-0109,545,OCCUR,Occurrence Indicator,DEATH,Y,Y,FOLLOW-UP,2022-10-12
NCT01797120,FA,NCT01797120-0110,546,OCCUR,Occurrence Indicator,INFORMED CONSENT OBTAINED,Y,Y,,2022-08-25
NCT01797120,FA,NCT01797120-0110,547,OCCUR,Occurrence Indicator,RANDOMIZED,Y,Y,,2022-09-21
NCT01797120,FA,NCT01797120-0110,548,OCCUR,Occurrence Indicator,PROGRESSIVE DISEASE,Y,Y,CONTINUATION,2023-08-24
NCT01797120,FA,NCT01797120-0110,549,OCCUR,Occurrence Indicator,PROGRESSIVE DISEASE,Y,Y,CONTINUATION,2023-08-24
NCT01797120,FA,NCT01797120-0110,550,OCCUR,Occurrence Indicator,LOST TO FOLLOW-UP,Y,Y,FOLLOW-UP,2024-02-08
NCT01797120,FA,NCT01797120-0111,551,OCCUR,Occurrence Indicator,INFORMED CONSENT OBTAINED,Y,Y,,2021-06-21
NCT01797120,FA,NCT01797120-0111,552,OCCUR,Occurrence Indicator,RANDOMIZED,Y,Y,,2021-07-11
NCT01797120,FA,NCT01797120-0111,553,OCCUR,Occurrence Indicator,PROGRESSIVE DISEASE,Y,Y,INDUCTION,2021-10-04
NCT01797120,FA,NCT01797120-0111,554,OCCUR,Occurrence Indicator,PROGRESSIVE DISEASE,Y,Y,INDUCTION,2021-10-04
NCT01797120,FA,NCT01797120-0111,555,OCCUR,Occurrence Indicator,WITHDRAWAL BY SUBJECT,Y,Y,FOLLOW-UP,2021-12-22
NCT01797120,FA,NCT01797120-0112,556,OCCUR,Occurrence Indicator,INFORMED CONSENT OBTAINED,Y,Y,,2021-06-23
NCT01797120,FA,NCT01797120-0112,557,OCCUR,Occurrence Indicator,RANDOMIZED,Y,Y,,2021-07-15
NCT01797120,FA,NCT01797120-0112,558,OCCUR,Occurrence Indicator,PROGRESSIVE DISEASE,Y,Y,CONTINUATION,2022-06-17
NCT01797120,FA,NCT01797120-0112,559,OCCUR,Occurrence Indicator,PROGRESSIVE DISEASE,Y,Y,CONTINUATION,2022-06-17
NCT01797120,FA,NCT01797120-0112,560,OCCUR,Occurrence Indicator,DEATH,Y,Y,FOLLOW-UP,2022-06-18
NCT01797120,FA,NCT01797120-0113,561,OCCUR,Occurrence Indicator,INFORMED CONSENT OBTAINED,Y,Y,,2021-10-24
NCT01797120,FA,NCT01797120-0113,562,OCCUR,Occurrence Indicator,RANDOMIZED,Y,Y,,2021-11-04
NCT01797120,FA,NCT01797120-0113,563,OCCUR,Occurrence Indicator,PROGRESSIVE DISEASE,Y,Y,INDUCTION,2022-01-28
NCT01797120,FA,NCT01797120-0113,564,OCCUR,Occurrence Indicator,PROGRESSIVE DISEASE,Y,Y,INDUCTION,2022-01-28
NCT01797120,FA,NCT01797120-0113,565,OCCUR,Occurrence Indicator,DEATH,Y,Y,FOLLOW-UP,2022-03-06
NCT01797120,FA,NCT01797120-0114,566,OCCUR,Occurrence Indicator,INFORMED CONSENT OBTAINED,Y,Y,,2021-05-01
NCT01797120,FA,NCT01797120-0114,567,OCCUR,Occurrence Indicator,RANDOMIZED,Y,Y,,2021-05-17
NCT01797120,FA,NCT01797120-0114,568,OCCUR,Occurrence Indicator,PROGRESSIVE DISEASE,Y,Y,INDUCTION,2021-11-02
NCT01797120,FA,NCT01797120-0114,569,OCCUR,Occurrence Indicator,PROGRESSIVE DISEASE,Y,Y,INDUCTION,2021-11-02
NCT01797120,FA,NCT01797120-0114,570,OCCUR,Occurrence Indicator,DEATH,Y,Y,FOLLOW-UP,2022-04-05
NCT01797120,FA,NCT01797120-0115,571,OCCUR,Occurrence Indicator,INFORMED CONSENT OBTAINED,Y,Y,,2021-03-24
NCT01797120,FA,NCT01797120-0115,572,OCCUR,Occurrence Indicator,RANDOMIZED,Y,Y,,2021-04-04
NCT01797120,FA,NCT01797120-0115,573,OCCUR,Occurrence Indicator,PROGRESSIVE DISEASE,Y,Y,CONTINUATION,2024-09-16
NCT01797120,FA,NCT01797120-0115,574,OCCUR,Occurrence Indicator,PROGRESSIVE DISEASE,Y,Y,CONTINUATION,2024-09-16
NCT01797120,FA,NCT01797120-0115,575,OCCUR,Occurrence Indicator,DEATH,Y,Y,FOLLOW-UP,2025-06-05
NCT01797120,FA,NCT01797120-0116,576,OCCUR,Occurrence Indicator,INFORMED CONSENT OBTAINED,Y,Y,,2021-03-05
NCT01797120,FA,NCT01797120-0116,577,OCCUR,Occurrence Indicator,RANDOMIZED,Y,Y,,2021-03-29
NCT01797120,FA,NCT01797120-0116,578,OCCUR,Occurrence Indicator,PROGRESSIVE DISEASE,Y,Y,INDUCTION,2021-09-14
NCT01797120,FA,NCT01797120-0116,579,OCCUR,Occurrence Indicator,PROGRESSIVE DISEASE,Y,Y,INDUCTION,2021-09-14
NCT01797120,FA,NCT01797120-0116,580,OCCUR,Occurrence Indicator,LOST TO FOLLOW-UP,Y,Y,FOLLOW-UP,2021-11-02
NCT01797120,FA,NCT01797120-0117,581,OCCUR,Occurrence Indicator,INFORMED CONSENT OBTAINED,Y,Y,,2021-05-16
NCT01797120,FA,NCT01797120-0117,582,OCCUR,Occurrence Indicator,RANDOMIZED,Y,Y,,2021-06-10
NCT01797120,FA,NCT01797120-0117,583,OCCUR,Occurrence Indicator,PROGRESSIVE DISEASE,Y,Y,CONTINUATION,2022-10-28
NCT01797120,FA,NCT01797120-0117,584,OCCUR,Occurrence Indicator,PROGRESSIVE DISEASE,Y,Y,CONTINUATION,2022-10-28
NCT01797120,FA,NCT01797120-0117,585,OCCUR,Occurrence Indicator,DEATH,Y,Y,FOLLOW-UP,2023-01-03
NCT01797120,FA,NCT01797120-0118,586,OCCUR,Occurrence Indicator,INFORMED CONSENT OBTAINED,Y,Y,,2021-05-08
NCT01797120,FA,NCT01797120-0118,587,OCCUR,Occurrence Indicator,RANDOMIZED,Y,Y,,2021-05-28
NCT01797120,FA,NCT01797120-0118,588,OCCUR,Occurrence Indicator,PROGRESSIVE DISEASE,Y,Y,INDUCTION,2021-11-13
NCT01797120,FA,NCT01797120-0118,589,OCCUR,Occurrence Indicator,PROGRESSIVE DISEASE,Y,Y,INDUCTION,2021-11-13
NCT01797120,FA,NCT01797120-0118,590,OCCUR,Occurrence Indicator,DEATH,Y,Y,FOLLOW-UP,2021-11-18
NCT01797120,FA,NCT01797120-0119,591,OCCUR,Occurrence Indicator,INFORMED CONSENT OBTAINED,Y,Y,,2022-07-19
NCT01797120,FA,NCT01797120-0119,592,OCCUR,Occurrence Indicator,RANDOMIZED,Y,Y,,2022-08-08
NCT01797120,FA,NCT01797120-0119,593,OCCUR,Occurrence Indicator,PROGRESSIVE DISEASE,Y,Y,INDUCTION,2022-11-01
NCT01797120,FA,NCT01797120-0119,594,OCCUR,Occurrence Indicator,PROGRESSIVE DISEASE,Y,Y,INDUCTION,2022-11-01
NCT01797120,FA,NCT01797120-0119,595,OCCUR,Occurrence Indicator,DEATH,Y,Y,FOLLOW-UP,2022-11-16
NCT01797120,FA,NCT01797120-0120,596,OCCUR,Occurrence Indicator,INFORMED CONSENT OBTAINED,Y,Y,,2022-03-23
NCT01797120,FA,NCT01797120-0120,597,OCCUR,Occurrence Indicator,RANDOMIZED,Y,Y,,2022-04-01
NCT01797120,FA,NCT01797120-0120,598,OCCUR,Occurrence Indicator,PROGRESSIVE DISEASE,Y,Y,INDUCTION,2022-06-25
NCT01797120,FA,NCT01797120-0120,599,OCCUR,Occurrence Indicator,PROGRESSIVE DISEASE,Y,Y,INDUCTION,2022-06-25
NCT01797120,FA,NCT01797120-0120,600,OCCUR,Occurrence Indicator,DEATH,Y,Y,FOLLOW-UP,2022-07-29
NCT01797120,FA,NCT01797120-0121,601,OCCUR,Occurrence Indicator,INFORMED CONSENT OBTAINED,Y,Y,,2021-03-19
NCT01797120,FA,NCT01797120-0121,602,OCCUR,Occurrence Indicator,RANDOMIZED,Y,Y,,2021-03-29
NCT01797120,FA,NCT01797120-0121,603,OCCUR,Occurrence Indicator,PROGRESSIVE DISEASE,Y,Y,CONTINUATION,2022-11-08
NCT01797120,FA,NCT01797120-0121,604,OCCUR,Occurrence Indicator,PROGRESSIVE DISEASE,Y,Y,CONTINUATION,2022-11-08
NCT01797120,FA,NCT01797120-0121,605,OCCUR,Occurrence Indicator,DEATH,Y,Y,FOLLOW-UP,2023-03-13
NCT01797120,FA,NCT01797120-0122,606,OCCUR,Occurrence Indicator,INFORMED CONSENT OBTAINED,Y,Y,,2020-12-29
NCT01797120,FA,NCT01797120-0122,607,OCCUR,Occurrence Indicator,RANDOMIZED,Y,Y,,2021-01-14
NCT01797120,FA,NCT01797120-0122,608,OCCUR,Occurrence Indicator,PROGRESSIVE DISEASE,Y,Y,INDUCTION,2021-04-09
NCT01797120,FA,NCT01797120-0122,609,OCCUR,Occurrence Indicator,PROGRESSIVE DISEASE,Y,Y,INDUCTION,2021-04-09
NCT01797120,FA,NCT01797120-0122,610,OCCUR,Occurrence Indicator,LOST TO FOLLOW-UP,Y,Y,FOLLOW-UP,2021-07-10
NCT01797120,FA,NCT01797120-0123,611,OCCUR,Occurrence Indicator,INFORMED CONSENT OBTAINED,Y,Y,,2021-10-23
NCT01797120,FA,NCT01797120-0123,612,OCCUR,Occurrence Indicator,RANDOMIZED,Y,Y,,2021-11-11
NCT01797120,FA,NCT01797120-0123,613,OCCUR,Occurrence Indicator,PROGRESSIVE DISEASE,Y,Y,INDUCTION,2022-04-29
NCT01797120,FA,NCT01797120-0123,614,OCCUR,Occurrence Indicator,PROGRESSIVE DISEASE,Y,Y,INDUCTION,2022-04-29
NCT01797120,FA,NCT01797120-0123,615,OCCUR,Occurrence Indicator,DEATH,Y,Y,FOLLOW-UP,2022-06-15
NCT01797120,FA,NCT01797120-0124,616,OCCUR,Occurrence Indicator,INFORMED CONSENT OBTAINED,Y,Y,,2022-07-26
NCT01797120,FA,NCT01797120-0124,617,OCCUR,Occurrence Indicator,RANDOMIZED,Y,Y,,2022-08-17
NCT01797120,FA,NCT01797120-0124,618,OCCUR,Occurrence Indicator,PROGRESSIVE DISEASE,Y,Y,CONTINUATION,2023-07-20
NCT01797120,FA,NCT01797120-0124,619,OCCUR,Occurrence Indicator,PROGRESSIVE DISEASE,Y,Y,CONTINUATION,2023-07-20
NCT01797120,FA,NCT01797120-0124,620,OCCUR,Occurrence Indicator,LOST TO FOLLOW-UP,Y,Y,FOLLOW-UP,2023-11-16
NCT01797120,FA,NCT01797120-0125,621,OCCUR,Occurrence Indicator,INFORMED CONSENT OBTAINED,Y,Y,,2021-04-22
NCT01797120,FA,NCT01797120-0125,622,OCCUR,Occurrence Indicator,RANDOMIZED,Y,Y,,2021-05-01
NCT01797120,FA,NCT01797120-0125,623,OCCUR,Occurrence Indicator,PROGRESSIVE DISEASE,Y,Y,INDUCTION,2021-07-25
NCT01797120,FA,NCT01797120-0125,624,OCCUR,Occurrence Indicator,PROGRESSIVE DISEASE,Y,Y,INDUCTION,2021-07-25
NCT01797120,FA,NCT01797120-0125,625,OCCUR,Occurrence Indicator,DEATH,Y,Y,FOLLOW-UP,2022-08-30
NCT01797120,FA,NCT01797120-0126,626,OCCUR,Occurrence Indicator,INFORMED CONSENT OBTAINED,Y,Y,,2022-11-21
NCT01797120,FA,NCT01797120-0126,627,OCCUR,Occurrence Indicator,RANDOMIZED,Y,Y,,2022-12-17
NCT01797120,FA,NCT01797120-0126,628,OCCUR,Occurrence Indicator,PROGRESSIVE DISEASE,Y,Y,INDUCTION,2023-06-04
NCT01797120,FA,NCT01797120-0126,629,OCCUR,Occurrence Indicator,PROGRESSIVE DISEASE,Y,Y,INDUCTION,2023-06-04
NCT01797120,FA,NCT01797120-0126,630,OCCUR,Occurrence Indicator,DEATH,Y,Y,FOLLOW-UP,2024-06-21
NCT01797120,FA,NCT01797120-0127,631,OCCUR,Occurrence Indicator,INFORMED CONSENT OBTAINED,Y,Y,,2021-09-26
NCT01797120,FA,NCT01797120-0127,632,OCCUR,Occurrence Indicator,RANDOMIZED,Y,Y,,2021-10-09
NCT01797120,FA,NCT01797120-0127,633,OCCUR,Occurrence Indicator,PROGRESSIVE DISEASE,Y,Y,CONTINUATION,2024-07-14
NCT01797120,FA,NCT01797120-0127,634,OCCUR,Occurrence Indicator,PROGRESSIVE DISEASE,Y,Y,CONTINUATION,2024-07-14
NCT01797120,FA,NCT01797120-0127,635,OCCUR,Occurrence Indicator,DEATH,Y,Y,FOLLOW-UP,2025-11-27
NCT01797120,FA,NCT01797120-0128,636,OCCUR,Occurrence Indicator,INFORMED CONSENT OBTAINED,Y,Y,,2022-02-10
NCT01797120,FA,NCT01797120-0128,637,OCCUR,Occurrence Indicator,RANDOMIZED,Y,Y,,2022-03-03
NCT01797120,FA,NCT01797120-0128,638,OCCUR,Occurrence Indicator,PROGRESSIVE DISEASE,Y,Y,CONTINUATION,2023-07-21
NCT01797120,FA,NCT01797120-0128,639,OCCUR,Occurrence Indicator,PROGRESSIVE DISEASE,Y,Y,CONTINUATION,2023-07-21
NCT01797120,FA,NCT01797120-0128,640,OCCUR,Occurrence Indicator,LOST TO FOLLOW-UP,Y,Y,FOLLOW-UP,2023-10-10
NCT01797120,FA,NCT01797120-0129,641,OCCUR,Occurrence Indicator,INFORMED CONSENT OBTAINED,Y,Y,,2022-03-24
NCT01797120,FA,NCT01797120-0129,642,OCCUR,Occurrence Indicator,RANDOMIZED,Y,Y,,2022-04-16
NCT01797120,FA,NCT01797120-0129,643,OCCUR,Occurrence Indicator,PROGRESSIVE DISEASE,Y,Y,CONTINUATION,2023-11-26
NCT01797120,FA,NCT01797120-0129,644,OCCUR,Occurrence Indicator,PROGRESSIVE DISEASE,Y,Y,CONTINUATION,2023-11-26
NCT01797120,FA,NCT01797120-0129,645,OCCUR,Occurrence Indicator,DEATH,Y,Y,FOLLOW-UP,2024-02-12
NCT01797120,FA,NCT01797120-0130,646,OCCUR,Occurrence Indicator,INFORMED CONSENT OBTAINED,Y,Y,,2021-09-20
NCT01797120,FA,NCT01797120-0130,647,OCCUR,Occurrence Indicator,RANDOMIZED,Y,Y,,2021-10-12
NCT01797120,FA,NCT01797120-0130,648,OCCUR,Occurrence Indicator,PROGRESSIVE DISEASE,Y,Y,INDUCTION,2022-06-22
NCT01797120,FA,NCT01797120-0130,649,OCCUR,Occurrence Indicator,PROGRESSIVE DISEASE,Y,Y,INDUCTION,2022-06-22
NCT01797120,FA,NCT01797120-0130,650,OCCUR,Occurrence Indicator,DEATH,Y,Y,FOLLOW-UP,2022-08-16
NCT01797120,FA,NCT01797120-0131,651,OCCUR,Occurrence Indicator,INFORMED CONSENT OBTAINED,Y,Y,,2021-09-19
NCT01797120,FA,NCT01797120-0131,652,OCCUR,Occurrence Indicator,RANDOMIZED,Y,Y,,2021-10-04
NCT01797120,FA,NCT01797120-0131,653,OCCUR,Occurrence Indicator,LOST TO FOLLOW-UP,Y,Y,CONTINUATION,2023-01-15
NCT01797120,FA,NCT01797120-0131,654,OCCUR,Occurrence Indicator,LOST TO FOLLOW-UP,Y,Y,CONTINUATION,2023-01-15
NCT01797120,FA,NCT01797120-0131,655,OCCUR,Occurrence Indicator,LOST TO FOLLOW-UP,Y,Y,FOLLOW-UP,2023-04-11
NCT01797120,FA,NCT01797120-0132,656,OCCUR,Occurrence Indicator,INFORMED CONSENT OBTAINED,Y,Y,,2021-11-14
NCT01797120,FA,NCT01797120-0132,657,OCCUR,Occurrence Indicator,RANDOMIZED,Y,Y,,2021-11-21
NCT01797120,FA,NCT01797120-0132,658,OCCUR,Occurrence Indicator,PROGRESSIVE DISEASE,Y,Y,INDUCTION,2022-02-14
NCT01797120,FA,NCT01797120-0132,659,OCCUR,Occurrence Indicator,PROGRESSIVE DISEASE,Y,Y,INDUCTION,2022-02-14
NCT01797120,FA,NCT01797120-0132,660,OCCUR,Occurrence Indicator,DEATH,Y,Y,FOLLOW-UP,2022-10-11
NCT01797120,FA,NCT01797120-0133,661,OCCUR,Occurrence Indicator,INFORMED CONSENT OBTAINED,Y,Y,,2022-06-02
NCT01797120,FA,NCT01797120-0133,662,OCCUR,Occurrence Indicator,RANDOMIZED,Y,Y,,2022-06-19
NCT01797120,FA,NCT01797120-0133,663,OCCUR,Occurrence Indicator,WITHDRAWAL BY SUBJECT,Y,Y,CONTINUATION,2023-07-09
NCT01797120,FA,NCT01797120-0133,664,OCCUR,Occurrence Indicator,WITHDRAWAL BY SUBJECT,Y,Y,CONTINUATION,2023-07-09
NCT01797120,FA,NCT01797120-0133,665,OCCUR,Occurrence Indicator,WITHDRAWAL BY SUBJECT,Y,Y,FOLLOW-UP,2023-07-09
NCT01797120,FA,NCT01797120-0134,666,OCCUR,Occurrence Indicator,INFORMED CONSENT OBTAINED,Y,Y,,2021-07-29
NCT01797120,FA,NCT01797120-0134,667,OCCUR,Occurrence Indicator,RANDOMIZED,Y,Y,,2021-08-16
NCT01797120,FA,NCT01797120-0134,668,OCCUR,Occurrence Indicator,PROGRESSIVE DISEASE,Y,Y,CONTINUATION,2022-07-19
NCT01797120,FA,NCT01797120-0134,669,OCCUR,Occurrence Indicator,PROGRESSIVE DISEASE,Y,Y,CONTINUATION,2022-07-19
NCT01797120,FA,NCT01797120-0134,670,OCCUR,Occurrence Indicator,DEATH,Y,Y,FOLLOW-UP,2022-09-27
NCT01797120,FA,NCT01797120-0135,671,OCCUR,Occurrence Indicator,INFORMED CONSENT OBTAINED,Y,Y,,2022-07-30
NCT01797120,FA,NCT01797120-0135,672,OCCUR,Occurrence Indicator,RANDOMIZED,Y,Y,,2022-08-19
NCT01797120,FA,NCT01797120-0135,673,OCCUR,Occurrence Indicator,PROGRESSIVE DISEASE,Y,Y,INDUCTION,2023-04-29
NCT01797120,FA,NCT01797120-0135,674,OCCUR,Occurrence Indicator,PROGRESSIVE DISEASE,Y,Y,INDUCTION,2023-04-29
NCT01797120,FA,NCT01797120-0135,675,OCCUR,Occurrence Indicator,WITHDRAWAL BY SUBJECT,Y,Y,FOLLOW-UP,2023-08-16
NCT01797120,FA,NCT01797120-0136,676,OCCUR,Occurrence Indicator,INFORMED CONSENT OBTAINED,Y,Y,,2022-09-26
NCT01797120,FA,NCT01797120-0136,677,OCCUR,Occurrence Indicator,RANDOMIZED,Y,Y,,2022-10-10
NCT01797120,FA,NCT01797120-0136,678,OCCUR,Occurrence Indicator,PROGRESSIVE DISEASE,Y,Y,INDUCTION,2023-03-28
NCT01797120,FA,NCT01797120-0136,679,OCCUR,Occurrence Indicator,PROGRESSIVE DISEASE,Y,Y,INDUCTION,2023-03-28
NCT01797120,FA,NCT01797120-0136,680,OCCUR,Occurrence Indicator,DEATH,Y,Y,FOLLOW-UP,2023-09-03
NCT01797120,FA,NCT01797120-0137,681,OCCUR,Occurrence Indicator,INFORMED CONSENT OBTAINED,Y,Y,,2022-07-15
NCT01797120,FA,NCT01797120-0137,682,OCCUR,Occurrence Indicator,RANDOMIZED,Y,Y,,2022-07-28
NCT01797120,FA,NCT01797120-0137,683,OCCUR,Occurrence Indicator,PROGRESSIVE DISEASE,Y,Y,INDUCTION,2022-10-21
NCT01797120,FA,NCT01797120-0137,684,OCCUR,Occurrence Indicator,PROGRESSIVE DISEASE,Y,Y,INDUCTION,2022-10-21
NCT01797120,FA,NCT01797120-0137,685,OCCUR,Occurrence Indicator,DEATH,Y,Y,FOLLOW-UP,2023-10-21
NCT01797120,FA,NCT01797120-0138,686,OCCUR,Occurrence Indicator,INFORMED CONSENT OBTAINED,Y,Y,,2022-09-26
NCT01797120,FA,NCT01797120-0138,687,OCCUR,Occurrence Indicator,RANDOMIZED,Y,Y,,2022-10-16
NCT01797120,FA,NCT01797120-0138,688,OCCUR,Occurrence Indicator,PROGRESSIVE DISEASE,Y,Y,CONTINUATION,2025-07-21
NCT01797120,FA,NCT01797120-0138,689,OCCUR,Occurrence Indicator,PROGRESSIVE DISEASE,Y,Y,CONTINUATION,2025-07-21
NCT01797120,FA,NCT01797120-0138,690,OCCUR,Occurrence Indicator,DEATH,Y,Y,FOLLOW-UP,2026-02-05
NCT01797120,FA,NCT01797120-0139,691,OCCUR,Occurrence Indicator,INFORMED CONSENT OBTAINED,Y,Y,,2022-05-05
NCT01797120,FA,NCT01797120-0139,692,OCCUR,Occurrence Indicator,RANDOMIZED,Y,Y,,2022-06-02
NCT01797120,FA,NCT01797120-0139,693,OCCUR,Occurrence Indicator,PROGRESSIVE DISEASE,Y,Y,CONTINUATION,2024-06-28
NCT01797120,FA,NCT01797120-0139,694,OCCUR,Occurrence Indicator,PROGRESSIVE DISEASE,Y,Y,CONTINUATION,2024-06-28
NCT01797120,FA,NCT01797120-0139,695,OCCUR,Occurrence Indicator,LOST TO FOLLOW-UP,Y,Y,FOLLOW-UP,2024-08-11
NCT01797120,FA,NCT01797120-0140,696,OCCUR,Occurrence Indicator,INFORMED CONSENT OBTAINED,Y,Y,,2021-08-23
NCT01797120,FA,NCT01797120-0140,697,OCCUR,Occurrence Indicator,RANDOMIZED,Y,Y,,2021-09-14
NCT01797120,FA,NCT01797120-0140,698,OCCUR,Occurrence Indicator,PROGRESSIVE DISEASE,Y,Y,CONTINUATION,2022-08-17
NCT01797120,FA,NCT01797120-0140,699,OCCUR,Occurrence Indicator,PROGRESSIVE DISEASE,Y,Y,CONTINUATION,2022-08-17
NCT01797120,FA,NCT01797120-0140,700,OCCUR,Occurrence Indicator,DEATH,Y,Y,FOLLOW-UP,2024-03-10
NCT01797120,FA,NCT01797120-0141,701,OCCUR,Occurrence Indicator,INFORMED CONSENT OBTAINED,Y,Y,,2021-05-01
NCT01797120,FA,NCT01797120-0141,702,OCCUR,Occurrence Indicator,RANDOMIZED,Y,Y,,2021-05-17
NCT01797120,FA,NCT01797120-0141,703,OCCUR,Occurrence Indicator,PROGRESSIVE DISEASE,Y,Y,INDUCTION,2021-08-10
NCT01797120,FA,NCT01797120-0141,704,OCCUR,Occurrence Indicator,PROGRESSIVE DISEASE,Y,Y,INDUCTION,2021-08-10
NCT01797120,FA,NCT01797120-0141,705,OCCUR,Occurrence Indicator,DEATH,Y,Y,FOLLOW-UP,2021-10-08
NCT01797120,FA,NCT01797120-0142,706,OCCUR,Occurrence Indicator,INFORMED CONSENT OBTAINED,Y,Y,,2021-07-14
NCT01797120,FA,NCT01797120-0142,707,OCCUR,Occurrence Indicator,RANDOMIZED,Y,Y,,2021-07-27
NCT01797120,FA,NCT01797120-0142,708,OCCUR,Occurrence Indicator,PROGRESSIVE DISEASE,Y,Y,INDUCTION,2021-10-20
NCT01797120,FA,NCT01797120-0142,709,OCCUR,Occurrence Indicator,PROGRESSIVE DISEASE,Y,Y,INDUCTION,2021-10-20
NCT01797120,FA,NCT01797120-0142,710,OCCUR,Occurrence Indicator,DEATH,Y,Y,FOLLOW-UP,2023-04-04
NCT01797120,FA,NCT01797120-0143,711,OCCUR,Occurrence Indicator,INFORMED CONSENT OBTAINED,Y,Y,,2022-03-12
NCT01797120,FA,NCT01797120-0143,712,OCCUR,Occurrence Indicator,RANDOMIZED,Y,Y,,2022-04-09
NCT01797120,FA,NCT01797120-0143,713,OCCUR,Occurrence Indicator,PROGRESSIVE DISEASE,Y,Y,INDUCTION,2022-09-25
NCT01797120,FA,NCT01797120-0143,714,OCCUR,Occurrence Indicator,PROGRESSIVE DISEASE,Y,Y,INDUCTION,2022-09-25
NCT01797120,FA,NCT01797120-0143,715,OCCUR,Occurrence Indicator,LOST TO FOLLOW-UP,Y,Y,FOLLOW-UP,2022-12-04
NCT01797120,FA,NCT01797120-0144,716,OCCUR,Occurrence Indicator,INFORMED CONSENT OBTAINED,Y,Y,,2021-05-02
NCT01797120,FA,NCT01797120-0144,717,OCCUR,Occurrence Indicator,RANDOMIZED,Y,Y,,2021-05-20
NCT01797120,FA,NCT01797120-0144,718,OCCUR,Occurrence Indicator,LOST TO FOLLOW-UP,Y,Y,INDUCTION,2021-09-12
NCT01797120,FA,NCT01797120-0144,719,OCCUR,Occurrence Indicator,LOST TO FOLLOW-UP,Y,Y,INDUCTION,2021-09-12
NCT01797120,FA,NCT01797120-0144,720,OCCUR,Occurrence Indicator,LOST TO FOLLOW-UP,Y,Y,FOLLOW-UP,2021-11-01
NCT01797120,FA,NCT01797120-0145,721,OCCUR,Occurrence Indicator,INFORMED CONSENT OBTAINED,Y,Y,,2020-12-11
NCT01797120,FA,NCT01797120-0145,722,OCCUR,Occurrence Indicator,RANDOMIZED,Y,Y,,2021-01-05
NCT01797120,FA,NCT01797120-0145,723,OCCUR,Occurrence Indicator,PROGRESSIVE DISEASE,Y,Y,CONTINUATION,2022-03-02
NCT01797120,FA,NCT01797120-0145,724,OCCUR,Occurrence Indicator,PROGRESSIVE DISEASE,Y,Y,CONTINUATION,2022-03-02
NCT01797120,FA,NCT01797120-0145,725,OCCUR,Occurrence Indicator,DEATH,Y,Y,FOLLOW-UP,2022-06-11
NCT01797120,FA,NCT01797120-0146,726,OCCUR,Occurrence Indicator,INFORMED CONSENT OBTAINED,Y,Y,,2022-02-14
NCT01797120,FA,NCT01797120-0146,727,OCCUR,Occurrence Indicator,RANDOMIZED,Y,Y,,2022-02-28
NCT01797120,FA,NCT01797120-0146,728,OCCUR,Occurrence Indicator,PROGRESSIVE DISEASE,Y,Y,INDUCTION,2022-08-16
NCT01797120,FA,NCT01797120-0146,729,OCCUR,Occurrence Indicator,PROGRESSIVE DISEASE,Y,Y,INDUCTION,2022-08-16
NCT01797120,FA,NCT01797120-0146,730,OCCUR,Occurrence Indicator,LOST TO FOLLOW-UP,Y,Y,FOLLOW-UP,2022-10-07
NCT01797120,FA,NCT01797120-0147,731,OCCUR,Occurrence Indicator,INFORMED CONSENT OBTAINED,Y,Y,,2021-12-07
NCT01797120,FA,NCT01797120-0147,732,OCCUR,Occurrence Indicator,RANDOMIZED,Y,Y,,2021-12-15
NCT01797120,FA,NCT01797120-0147,733,OCCUR,Occurrence Indicator,PROGRESSIVE DISEASE,Y,Y,INDUCTION,2022-03-10
NCT01797120,FA,NCT01797120-0147,734,OCCUR,Occurrence Indicator,PROGRESSIVE DISEASE,Y,Y,INDUCTION,2022-03-10
NCT01797120,FA,NCT01797120-0147,735,OCCUR,Occurrence Indicator,DEATH,Y,Y,FOLLOW-UP,2022-07-03
NCT01797120,FA,NCT01797120-0148,736,OCCUR,Occurrence Indicator,INFORMED CONSENT OBTAINED,Y,Y,,2021-09-24
NCT01797120,FA,NCT01797120-0148,737,OCCUR,Occurrence Indicator,RANDOMIZED,Y,Y,,2021-10-10
NCT01797120,FA,NCT01797120-0148,738,OCCUR,Occurrence Indicator,PROGRESSIVE DISEASE,Y,Y,INDUCTION,2022-03-28
NCT01797120,FA,NCT01797120-0148,739,OCCUR,Occurrence Indicator,PROGRESSIVE DISEASE,Y,Y,INDUCTION,2022-03-28
NCT01797120,FA,NCT01797120-0148,740,OCCUR,Occurrence Indicator,DEATH,Y,Y,FOLLOW-UP,2022-06-28
NCT01797120,FA,NCT01797120-0149,741,OCCUR,Occurrence Indicator,INFORMED CONSENT OBTAINED,Y,Y,,2022-08-01
NCT01797120,FA,NCT01797120-0149,742,OCCUR,Occurrence Indicator,RANDOMIZED,Y,Y,,2022-08-10
NCT01797120,FA,NCT01797120-0149,743,OCCUR,Occurrence Indicator,PROGRESSIVE DISEASE,Y,Y,CONTINUATION,2023-10-05
NCT01797120,FA,NCT01797120-0149,744,OCCUR,Occurrence Indicator,PROGRESSIVE DISEASE,Y,Y,CONTINUATION,2023-10-05
NCT01797120,FA,NCT01797120-0149,745,OCCUR,Occurrence Indicator,LOST TO FOLLOW-UP,Y,Y,FOLLOW-UP,2023-12-22
NCT01797120,FA,NCT01797120-0150,746,OCCUR,Occurrence Indicator,INFORMED CONSENT OBTAINED,Y,Y,,2022-02-13
NCT01797120,FA,NCT01797120-0150,747,OCCUR,Occurrence Indicator,RANDOMIZED,Y,Y,,2022-03-10
NCT01797120,FA,NCT01797120-0150,748,OCCUR,Occurrence Indicator,PROGRESSIVE DISEASE,Y,Y,CONTINUATION,2023-02-10
NCT01797120,FA,NCT01797120-0150,749,OCCUR,Occurrence Indicator,PROGRESSIVE DISEASE,Y,Y,CONTINUATION,2023-02-10
NCT01797120,FA,NCT01797120-0150,750,OCCUR,Occurrence Indicator,DEATH,Y,Y,FOLLOW-UP,2024-09-09
NCT01797120,FA,NCT01797120-0151,751,OCCUR,Occurrence Indicator,INFORMED CONSENT OBTAINED,Y,Y,,2021-07-18
NCT01797120,FA,NCT01797120-0151,752,OCCUR,Occurrence Indicator,RANDOMIZED,Y,Y,,2021-08-08
NCT01797120,FA,NCT01797120-0151,753,OCCUR,Occurrence Indicator,PROGRESSIVE DISEASE,Y,Y,CONTINUATION,2022-12-26
NCT01797120,FA,NCT01797120-0151,754,OCCUR,Occurrence Indicator,PROGRESSIVE DISEASE,Y,Y,CONTINUATION,2022-12-26
NCT01797120,FA,NCT01797120-0151,755,OCCUR,Occurrence Indicator,DEATH,Y,Y,FOLLOW-UP,2023-06-25
NCT01797120,FA,NCT01797120-0152,756,OCCUR,Occurrence Indicator,INFORMED CONSENT OBTAINED,Y,Y,,2021-12-28
NCT01797120,FA,NCT01797120-0152,757,OCCUR,Occurrence Indicator,RANDOMIZED,Y,Y,,2022-01-09
NCT01797120,FA,NCT01797120-0152,758,OCCUR,Occurrence Indicator,PROGRESSIVE DISEASE,Y,Y,INDUCTION,2022-06-27
NCT01797120,FA,NCT01797120-0152,759,OCCUR,Occurrence Indicator,PROGRESSIVE DISEASE,Y,Y,INDUCTION,2022-06-27
NCT01797120,FA,NCT01797120-0152,760,OCCUR,Occurrence Indicator,DEATH,Y,Y,FOLLOW-UP,2022-10-24
NCT01797120,FA,NCT01797120-0153,761,OCCUR,Occurrence Indicator,INFORMED CONSENT OBTAINED,Y,Y,,2021-10-07
NCT01797120,FA,NCT01797120-0153,762,OCCUR,Occurrence Indicator,RANDOMIZED,Y,Y,,2021-10-18
NCT01797120,FA,NCT01797120-0153,763,OCCUR,Occurrence Indicator,PROGRESSIVE DISEASE,Y,Y,INDUCTION,2022-04-05
NCT01797120,FA,NCT01797120-0153,764,OCCUR,Occurrence Indicator,PROGRESSIVE DISEASE,Y,Y,INDUCTION,2022-04-05
NCT01797120,FA,NCT01797120-0153,765,OCCUR,Occurrence Indicator,DEATH,Y,Y,FOLLOW-UP,2022-10-31
NCT01797120,FA,NCT01797120-0154,766,OCCUR,Occurrence Indicator,INFORMED CONSENT OBTAINED,Y,Y,,2022-06-23
NCT01797120,FA,NCT01797120-0154,767,OCCUR,Occurrence Indicator,RANDOMIZED,Y,Y,,2022-07-18
NCT01797120,FA,NCT01797120-0154,768,OCCUR,Occurrence Indicator,PROGRESSIVE DISEASE,Y,Y,CONTINUATION,2023-06-20
NCT01797120,FA,NCT01797120-0154,769,OCCUR,Occurrence Indicator,PROGRESSIVE DISEASE,Y,Y,CONTINUATION,2023-06-20
NCT01797120,FA,NCT01797120-0154,770,OCCUR,Occurrence Indicator,DEATH,Y,Y,FOLLOW-UP,2023-11-11
NCT01797120,FA,NCT01797120-0155,771,OCCUR,Occurrence Indicator,INFORMED CONSENT OBTAINED,Y,Y,,2022-10-12
NCT01797120,FA,NCT01797120-0155,772,OCCUR,Occurrence Indicator,RANDOMIZED,Y,Y,,2022-11-02
NCT01797120,FA,NCT01797120-0155,773,OCCUR,Occurrence Indicator,PROGRESSIVE DISEASE,Y,Y,INDUCTION,2023-04-20
NCT01797120,FA,NCT01797120-0155,774,OCCUR,Occurrence Indicator,PROGRESSIVE DISEASE,Y,Y,INDUCTION,2023-04-20
NCT01797120,FA,NCT01797120-0155,775,OCCUR,Occurrence Indicator,DEATH,Y,Y,FOLLOW-UP,2023-07-19
NCT01797120,FA,NCT01797120-0156,776,OCCUR,Occurrence Indicator,INFORMED CONSENT OBTAINED,Y,Y,,2022-02-17
NCT01797120,FA,NCT01797120-0156,777,OCCUR,Occurrence Indicator,RANDOMIZED,Y,Y,,2022-03-14
NCT01797120,FA,NCT01797120-0156,778,OCCUR,Occurrence Indicator,WITHDRAWAL BY SUBJECT,Y,Y,INDUCTION,2022-09-30
NCT01797120,FA,NCT01797120-0156,779,OCCUR,Occurrence Indicator,WITHDRAWAL BY SUBJECT,Y,Y,INDUCTION,2022-09-30
NCT01797120,FA,NCT01797120-0156,780,OCCUR,Occurrence Indicator,WITHDRAWAL BY SUBJECT,Y,Y,FOLLOW-UP,2022-09-30
NCT01797120,FA,NCT01797120-0157,781,OCCUR,Occurrence Indicator,INFORMED CONSENT OBTAINED,Y,Y,,2022-05-16
NCT01797120,FA,NCT01797120-0157,782,OCCUR,Occurrence Indicator,RANDOMIZED,Y,Y,,2022-05-24
NCT01797120,FA,NCT01797120-0157,783,OCCUR,Occurrence Indicator,PROGRESSIVE DISEASE,Y,Y,CONTINUATION,2023-10-11
NCT01797120,FA,NCT01797120-0157,784,OCCUR,Occurrence Indicator,PROGRESSIVE DISEASE,Y,Y,CONTINUATION,2023-10-11
NCT01797120,FA,NCT01797120-0157,785,OCCUR,Occurrence Indicator,DEATH,Y,Y,FOLLOW-UP,2024-05-30
NCT01797120,FA,NCT01797120-0158,786,OCCUR,Occurrence Indicator,INFORMED CONSENT OBTAINED,Y,Y,,2022-03-07
NCT01797120,FA,NCT01797120-0158,787,OCCUR,Occurrence Indicator,RANDOMIZED,Y,Y,,2022-03-26
NCT01797120,FA,NCT01797120-0158,788,OCCUR,Occurrence Indicator,PROGRESSIVE DISEASE,Y,Y,CONTINUATION,2023-02-26
NCT01797120,FA,NCT01797120-0158,789,OCCUR,Occurrence Indicator,PROGRESSIVE DISEASE,Y,Y,CONTINUATION,2023-02-26
NCT01797120,FA,NCT01797120-0158,790,OCCUR,Occurrence Indicator,DEATH,Y,Y,FOLLOW-UP,2023-08-16
NCT01797120,FA,NCT01797120-0159,791,OCCUR,Occurrence Indicator,INFORMED CONSENT OBTAINED,Y,Y,,2021-11-16
NCT01797120,FA,NCT01797120-0159,792,OCCUR,Occurrence Indicator,RANDOMIZED,Y,Y,,2021-11-23
NCT01797120,FA,NCT01797120-0159,793,OCCUR,Occurrence Indicator,PROGRESSIVE DISEASE,Y,Y,INDUCTION,2022-08-03
NCT01797120,FA,NCT01797120-0159,794,OCCUR,Occurrence Indicator,PROGRESSIVE DISEASE,Y,Y,INDUCTION,2022-08-03
NCT01797120,FA,NCT01797120-0159,795,OCCUR,Occurrence Indicator,DEATH,Y,Y,FOLLOW-UP,2022-11-30
NCT01797120,FA,NCT01797120-0160,796,OCCUR,Occurrence Indicator,INFORMED CONSENT OBTAINED,Y,Y,,2022-04-20
NCT01797120,FA,NCT01797120-0160,797,OCCUR,Occurrence Indicator,RANDOMIZED,Y,Y,,2022-05-06
NCT01797120,FA,NCT01797120-0160,798,OCCUR,Occurrence Indicator,PROGRESSIVE DISEASE,Y,Y,INDUCTION,2022-10-22
NCT01797120,FA,NCT01797120-0160,799,OCCUR,Occurrence Indicator,PROGRESSIVE DISEASE,Y,Y,INDUCTION,2022-10-22
NCT01797120,FA,NCT01797120-0160,800,OCCUR,Occurrence Indicator,DEATH,Y,Y,FOLLOW-UP,2023-03-26
NCT01797120,FA,NCT01797120-0161,801,OCCUR,Occurrence Indicator,INFORMED CONSENT OBTAINED,Y,Y,,2021-01-31
NCT01797120,FA,NCT01797120-0161,802,OCCUR,Occurrence Indicator,RANDOMIZED,Y,Y,,2021-02-23
NCT01797120,FA,NCT01797120-0161,803,OCCUR,Occurrence Indicator,PROGRESSIVE DISEASE,Y,Y,INDUCTION,2021-08-11
NCT01797120,FA,NCT01797120-0161,804,OCCUR,Occurrence Indicator,PROGRESSIVE DISEASE,Y,Y,INDUCTION,2021-08-11
NCT01797120,FA,NCT01797120-0161,805,OCCUR,Occurrence Indicator,LOST TO FOLLOW-UP,Y,Y,FOLLOW-UP,2022-01-31
NCT01797120,FA,NCT01797120-0162,806,OCCUR,Occurrence Indicator,INFORMED CONSENT OBTAINED,Y,Y,,2021-03-27
NCT01797120,FA,NCT01797120-0162,807,OCCUR,Occurrence Indicator,RANDOMIZED,Y,Y,,2021-04-05
NCT01797120,FA,NCT01797120-0162,808,OCCUR,Occurrence Indicator,LOST TO FOLLOW-UP,Y,Y,INDUCTION,2021-11-01
NCT01797120,FA,NCT01797120-0162,809,OCCUR,Occurrence Indicator,LOST TO FOLLOW-UP,Y,Y,INDUCTION,2021-11-01
NCT01797120,FA,NCT01797120-0162,810,OCCUR,Occurrence Indicator,LOST TO FOLLOW-UP,Y,Y,FOLLOW-UP,2021-12-31
NCT01797120,FA,NCT01797120-0163,811,OCCUR,Occurrence Indicator,INFORMED CONSENT OBTAINED,Y,Y,,2021-02-14
NCT01797120,FA,NCT01797120-0163,812,OCCUR,Occurrence Indicator,RANDOMIZED,Y,Y,,2021-03-01
NCT01797120,FA,NCT01797120-0163,813,OCCUR,Occurrence Indicator,PROGRESSIVE DISEASE,Y,Y,INDUCTION,2021-05-25
NCT01797120,FA,NCT01797120-0163,814,OCCUR,Occurrence Indicator,PROGRESSIVE DISEASE,Y,Y,INDUCTION,2021-05-25
NCT01797120,FA,NCT01797120-0163,815,OCCUR,Occurrence Indicator,DEATH,Y,Y,FOLLOW-UP,2023-04-01
NCT01797120,FA,NCT01797120-0164,816,OCCUR,Occurrence Indicator,INFORMED CONSENT OBTAINED,Y,Y,,2021-11-07
NCT01797120,FA,NCT01797120-0164,817,OCCUR,Occurrence Indicator,RANDOMIZED,Y,Y,,2021-12-03
NCT01797120,FA,NCT01797120-0164,818,OCCUR,Occurrence Indicator,PROGRESSIVE DISEASE,Y,Y,INDUCTION,2022-02-26
NCT01797120,FA,NCT01797120-0164,819,OCCUR,Occurrence Indicator,PROGRESSIVE DISEASE,Y,Y,INDUCTION,2022-02-26
NCT01797120,FA,NCT01797120-0164,820,OCCUR,Occurrence Indicator,LOST TO FOLLOW-UP,Y,Y,FOLLOW-UP,2022-05-10
NCT01797120,FA,NCT01797120-0165,821,OCCUR,Occurrence Indicator,INFORMED CONSENT OBTAINED,Y,Y,,2022-10-12
NCT01797120,FA,NCT01797120-0165,822,OCCUR,Occurrence Indicator,RANDOMIZED,Y,Y,,2022-10-29
NCT01797120,FA,NCT01797120-0165,823,OCCUR,Occurrence Indicator,PROGRESSIVE DISEASE,Y,Y,INDUCTION,2023-04-16
NCT01797120,FA,NCT01797120-0165,824,OCCUR,Occurrence Indicator,PROGRESSIVE DISEASE,Y,Y,INDUCTION,2023-04-16
NCT01797120,FA,NCT01797120-0165,825,OCCUR,Occurrence Indicator,DEATH,Y,Y,FOLLOW-UP,2023-06-10
NCT01797120,FA,NCT01797120-0166,826,OCCUR,Occurrence Indicator,INFORMED CONSENT OBTAINED,Y,Y,,2022-09-06
NCT01797120,FA,NCT01797120-0166,827,OCCUR,Occurrence Indicator,RANDOMIZED,Y,Y,,2022-09-29
NCT01797120,FA,NCT01797120-0166,828,OCCUR,Occurrence Indicator,PROGRESSIVE DISEASE,Y,Y,INDUCTION,2023-03-17
NCT01797120,FA,NCT01797120-0166,829,OCCUR,Occurrence Indicator,PROGRESSIVE DISEASE,Y,Y,INDUCTION,2023-03-17
NCT01797120,FA,NCT01797120-0166,830,OCCUR,Occurrence Indicator,LOST TO FOLLOW-UP,Y,Y,FOLLOW-UP,2023-06-26
NCT01797120,FA,NCT01797120-0167,831,OCCUR,Occurrence Indicator,INFORMED CONSENT OBTAINED,Y,Y,,2021-06-05
NCT01797120,FA,NCT01797120-0167,832,OCCUR,Occurrence Indicator,RANDOMIZED,Y,Y,,2021-06-13
NCT01797120,FA,NCT01797120-0167,833,OCCUR,Occurrence Indicator,PROGRESSIVE DISEASE,Y,Y,CONTINUATION,2022-05-16
NCT01797120,FA,NCT01797120-0167,834,OCCUR,Occurrence Indicator,PROGRESSIVE DISEASE,Y,Y,CONTINUATION,2022-05-16
NCT01797120,FA,NCT01797120-0167,835,OCCUR,Occurrence Indicator,DEATH,Y,Y,FOLLOW-UP,2022-07-30
NCT01797120,FA,NCT01797120-0168,836,OCCUR,Occurrence Indicator,INFORMED CONSENT OBTAINED,Y,Y,,2022-07-18
NCT01797120,FA,NCT01797120-0168,837,OCCUR,Occurrence Indicator,RANDOMIZED,Y,Y,,2022-07-25
NCT01797120,FA,NCT01797120-0168,838,OCCUR,Occurrence Indicator,PROGRESSIVE DISEASE,Y,Y,INDUCTION,2023-01-10
NCT01797120,FA,NCT01797120-0168,839,OCCUR,Occurrence Indicator,PROGRESSIVE DISEASE,Y,Y,INDUCTION,2023-01-10
NCT01797120,FA,NCT01797120-0168,840,OCCUR,Occurrence Indicator,DEATH,Y,Y,FOLLOW-UP,2023-06-08
NCT01797120,FA,NCT01797120-0169,841,OCCUR,Occurrence Indicator,INFORMED CONSENT OBTAINED,Y,Y,,2021-04-05
NCT01797120,FA,NCT01797120-0169,842,OCCUR,Occurrence Indicator,RANDOMIZED,Y,Y,,2021-04-17
NCT01797120,FA,NCT01797120-0169,843,OCCUR,Occurrence Indicator,PROGRESSIVE DISEASE,Y,Y,INDUCTION,2021-07-11
NCT01797120,FA,NCT01797120-0169,844,OCCUR,Occurrence Indicator,PROGRESSIVE DISEASE,Y,Y,INDUCTION,2021-07-11
NCT01797120,FA,NCT01797120-0169,845,OCCUR,Occurrence Indicator,DEATH,Y,Y,FOLLOW-UP,2022-02-10
NCT01797120,FA,NCT01797120-0170,846,OCCUR,Occurrence Indicator,INFORMED CONSENT OBTAINED,Y,Y,,2021-07-12
NCT01797120,FA,NCT01797120-0170,847,OCCUR,Occurrence Indicator,RANDOMIZED,Y,Y,,2021-07-21
NCT01797120,FA,NCT01797120-0170,848,OCCUR,Occurrence Indicator,PROGRESSIVE DISEASE,Y,Y,INDUCTION,2021-10-14
NCT01797120,FA,NCT01797120-0170,849,OCCUR,Occurrence Indicator,PROGRESSIVE DISEASE,Y,Y,INDUCTION,2021-10-14
NCT01797120,FA,NCT01797120-0170,850,OCCUR,Occurrence Indicator,DEATH,Y,Y,FOLLOW-UP,2021-11-14
NCT01797120,FA,NCT01797120-0171,851,OCCUR,Occurrence Indicator,INFORMED CONSENT OBTAINED,Y,Y,,2021-10-06
NCT01797120,FA,NCT01797120-0171,852,OCCUR,Occurrence Indicator,RANDOMIZED,Y,Y,,2021-10-28
NCT01797120,FA,NCT01797120-0171,853,OCCUR,Occurrence Indicator,PROGRESSIVE DISEASE,Y,Y,CONTINUATION,2022-12-23
NCT01797120,FA,NCT01797120-0171,854,OCCUR,Occurrence Indicator,PROGRESSIVE DISEASE,Y,Y,CONTINUATION,2022-12-23
NCT01797120,FA,NCT01797120-0171,855,OCCUR,Occurrence Indicator,LOST TO FOLLOW-UP,Y,Y,FOLLOW-UP,2023-03-22
NCT01797120,FA,NCT01797120-0172,856,OCCUR,Occurrence Indicator,INFORMED CONSENT OBTAINED,Y,Y,,2022-06-25
NCT01797120,FA,NCT01797120-0172,857,OCCUR,Occurrence Indicator,RANDOMIZED,Y,Y,,2022-07-05
NCT01797120,FA,NCT01797120-0172,858,OCCUR,Occurrence Indicator,PROGRESSIVE DISEASE,Y,Y,CONTINUATION,2023-11-22
NCT01797120,FA,NCT01797120-0172,859,OCCUR,Occurrence Indicator,PROGRESSIVE DISEASE,Y,Y,CONTINUATION,2023-11-22
NCT01797120,FA,NCT01797120-0172,860,OCCUR,Occurrence Indicator,DEATH,Y,Y,FOLLOW-UP,2024-03-06
NCT01797120,FA,NCT01797120-0173,861,OCCUR,Occurrence Indicator,INFORMED CONSENT OBTAINED,Y,Y,,2022-10-21
NCT01797120,FA,NCT01797120-0173,862,OCCUR,Occurrence Indicator,RANDOMIZED,Y,Y,,2022-11-11
NCT01797120,FA,NCT01797120-0173,863,OCCUR,Occurrence Indicator,PROGRESSIVE DISEASE,Y,Y,CONTINUATION,2024-01-06
NCT01797120,FA,NCT01797120-0173,864,OCCUR,Occurrence Indicator,PROGRESSIVE DISEASE,Y,Y,CONTINUATION,2024-01-06
NCT01797120,FA,NCT01797120-0173,865,OCCUR,Occurrence Indicator,DEATH,Y,Y,FOLLOW-UP,2025-08-20
NCT01797120,FA,NCT01797120-0174,866,OCCUR,Occurrence Indicator,INFORMED CONSENT OBTAINED,Y,Y,,2022-09-29
NCT01797120,FA,NCT01797120-0174,867,OCCUR,Occurrence Indicator,RANDOMIZED,Y,Y,,2022-10-11
NCT01797120,FA,NCT01797120-0174,868,OCCUR,Occurrence Indicator,PROGRESSIVE DISEASE,Y,Y,INDUCTION,2023-03-29
NCT01797120,FA,NCT01797120-0174,869,OCCUR,Occurrence Indicator,PROGRESSIVE DISEASE,Y,Y,INDUCTION,2023-03-29
NCT01797120,FA,NCT01797120-0174,870,OCCUR,Occurrence Indicator,DEATH,Y,Y,FOLLOW-UP,2023-09-03
NCT01797120,FA,NCT01797120-0175,871,OCCUR,Occurrence Indicator,INFORMED CONSENT OBTAINED,Y,Y,,2020-12-27
NCT01797120,FA,NCT01797120-0175,872,OCCUR,Occurrence Indicator,RANDOMIZED,Y,Y,,2021-01-14
NCT01797120,FA,NCT01797120-0175,873,OCCUR,Occurrence Indicator,PROGRESSIVE DISEASE,Y,Y,INDUCTION,2021-04-09
NCT01797120,FA,NCT01797120-0175,874,OCCUR,Occurrence Indicator,PROGRESSIVE DISEASE,Y,Y,INDUCTION,2021-04-09
NCT01797120,FA,NCT01797120-0175,875,OCCUR,Occurrence Indicator,DEATH,Y,Y,FOLLOW-UP,2021-08-04
NCT01797120,FA,NCT01797120-0176,876,OCCUR,Occurrence Indicator,INFORMED CONSENT OBTAINED,Y,Y,,2022-11-26
NCT01797120,FA,NCT01797120-0176,877,OCCUR,Occurrence Indicator,RANDOMIZED,Y,Y,,2022-12-22
NCT01797120,FA,NCT01797120-0176,878,OCCUR,Occurrence Indicator,PROGRESSIVE DISEASE,Y,Y,CONTINUATION,2024-02-16
NCT01797120,FA,NCT01797120-0176,879,OCCUR,Occurrence Indicator,PROGRESSIVE DISEASE,Y,Y,CONTINUATION,2024-02-16
NCT01797120,FA,NCT01797120-0176,880,OCCUR,Occurrence Indicator,LOST TO FOLLOW-UP,Y,Y,FOLLOW-UP,2024-04-11
NCT01797120,FA,NCT01797120-0177,881,OCCUR,Occurrence Indicator,INFORMED CONSENT OBTAINED,Y,Y,,2022-06-06
NCT01797120,FA,NCT01797120-0177,882,OCCUR,Occurrence Indicator,RANDOMIZED,Y,Y,,2022-06-19
NCT01797120,FA,NCT01797120-0177,883,OCCUR,Occurrence Indicator,LOST TO FOLLOW-UP,Y,Y,CONTINUATION,2024-01-29
NCT01797120,FA,NCT01797120-0177,884,OCCUR,Occurrence Indicator,LOST TO FOLLOW-UP,Y,Y,CONTINUATION,2024-01-29
NCT01797120,FA,NCT01797120-0177,885,OCCUR,Occurrence Indicator,LOST TO FOLLOW-UP,Y,Y,FOLLOW-UP,2024-05-09
NCT01797120,FA,NCT01797120-0178,886,OCCUR,Occurrence Indicator,INFORMED CONSENT OBTAINED,Y,Y,,2022-04-23
NCT01797120,FA,NCT01797120-0178,887,OCCUR,Occurrence Indicator,RANDOMIZED,Y,Y,,2022-05-20
NCT01797120,FA,NCT01797120-0178,888,OCCUR,Occurrence Indicator,PROGRESSIVE DISEASE,Y,Y,CONTINUATION,2023-04-22
NCT01797120,FA,NCT01797120-0178,889,OCCUR,Occurrence Indicator,PROGRESSIVE DISEASE,Y,Y,CONTINUATION,2023-04-22
NCT01797120,FA,NCT01797120-0178,890,OCCUR,Occurrence Indicator,DEATH,Y,Y,FOLLOW-UP,2023-06-14
NCT01797120,FA,NCT01797120-0179,891,OCCUR,Occurrence Indicator,INFORMED CONSENT OBTAINED,Y,Y,,2021-07-16
NCT01797120,FA,NCT01797120-0179,892,OCCUR,Occurrence Indicator,RANDOMIZED,Y,Y,,2021-07-29
NCT01797120,FA,NCT01797120-0179,893,OCCUR,Occurrence Indicator,PROGRESSIVE DISEASE,Y,Y,CONTINUATION,2022-12-16
NCT01797120,FA,NCT01797120-0179,894,OCCUR,Occurrence Indicator,PROGRESSIVE DISEASE,Y,Y,CONTINUATION,2022-12-16
NCT01797120,FA,NCT01797120-0179,895,OCCUR,Occurrence Indicator,DEATH,Y,Y,FOLLOW-UP,2023-02-04
NCT01797120,FA,NCT01797120-0180,896,OCCUR,Occurrence Indicator,INFORMED CONSENT OBTAINED,Y,Y,,2022-03-06
NCT01797120,FA,NCT01797120-0180,897,OCCUR,Occurrence Indicator,RANDOMIZED,Y,Y,,2022-04-01
NCT01797120,FA,NCT01797120-0180,898,OCCUR,Occurrence Indicator,PROGRESSIVE DISEASE,Y,Y,CONTINUATION,2024-02-03
NCT01797120,FA,NCT01797120-0180,899,OCCUR,Occurrence Indicator,PROGRESSIVE DISEASE,Y,Y,CONTINUATION,2024-02-03
NCT01797120,FA,NCT01797120-0180,900,OCCUR,Occurrence Indicator,DEATH,Y,Y,FOLLOW-UP,2024-04-15
NCT01797120,FA,NCT01797120-0181,901,OCCUR,Occurrence Indicator,INFORMED CONSENT OBTAINED,Y,Y,,2022-04-01
NCT01797120,FA,NCT01797120-0181,902,OCCUR,Occurrence Indicator,RANDOMIZED,Y,Y,,2022-04-14
NCT01797120,FA,NCT01797120-0181,903,OCCUR,Occurrence Indicator,LOST TO FOLLOW-UP,Y,Y,CONTINUATION,2023-11-07
NCT01797120,FA,NCT01797120-0181,904,OCCUR,Occurrence Indicator,LOST TO FOLLOW-UP,Y,Y,CONTINUATION,2023-11-07
NCT01797120,FA,NCT01797120-0181,905,OCCUR,Occurrence Indicator,LOST TO FOLLOW-UP,Y,Y,FOLLOW-UP,2024-01-02
NCT01797120,FA,NCT01797120-0182,906,OCCUR,Occurrence Indicator,INFORMED CONSENT OBTAINED,Y,Y,,2022-04-10
NCT01797120,FA,NCT01797120-0182,907,OCCUR,Occurrence Indicator,RANDOMIZED,Y,Y,,2022-04-19
NCT01797120,FA,NCT01797120-0182,908,OCCUR,Occurrence Indicator,LOST TO FOLLOW-UP,Y,Y,INDUCTION,2023-03-02
NCT01797120,FA,NCT01797120-0182,909,OCCUR,Occurrence Indicator,LOST TO FOLLOW-UP,Y,Y,INDUCTION,2023-03-02
NCT01797120,FA,NCT01797120-0182,910,OCCUR,Occurrence Indicator,LOST TO FOLLOW-UP,Y,Y,FOLLOW-UP,2023-06-05
NCT01797120,FA,NCT01797120-0183,911,OCCUR,Occurrence Indicator,INFORMED CONSENT OBTAINED,Y,Y,,2022-07-14
NCT01797120,FA,NCT01797120-0183,912,OCCUR,Occurrence Indicator,RANDOMIZED,Y,Y,,2022-07-27
NCT01797120,FA,NCT01797120-0183,913,OCCUR,Occurrence Indicator,LOST TO FOLLOW-UP,Y,Y,CONTINUATION,2024-03-12
NCT01797120,FA,NCT01797120-0183,914,OCCUR,Occurrence Indicator,LOST TO FOLLOW-UP,Y,Y,CONTINUATION,2024-03-12
NCT01797120,FA,NCT01797120-0183,915,OCCUR,Occurrence Indicator,LOST TO FOLLOW-UP,Y,Y,FOLLOW-UP,2024-06-18
NCT01797120,FA,NCT01797120-0184,916,OCCUR,Occurrence Indicator,INFORMED CONSENT OBTAINED,Y,Y,,2022-01-24
NCT01797120,FA,NCT01797120-0184,917,OCCUR,Occurrence Indicator,RANDOMIZED,Y,Y,,2022-02-05
NCT01797120,FA,NCT01797120-0184,918,OCCUR,Occurrence Indicator,PROGRESSIVE DISEASE,Y,Y,INDUCTION,2022-07-24
NCT01797120,FA,NCT01797120-0184,919,OCCUR,Occurrence Indicator,PROGRESSIVE DISEASE,Y,Y,INDUCTION,2022-07-24
NCT01797120,FA,NCT01797120-0184,920,OCCUR,Occurrence Indicator,DEATH,Y,Y,FOLLOW-UP,2023-04-12
NCT01797120,FA,NCT01797120-0185,921,OCCUR,Occurrence Indicator,INFORMED CONSENT OBTAINED,Y,Y,,2021-02-14
NCT01797120,FA,NCT01797120-0185,922,OCCUR,Occurrence Indicator,RANDOMIZED,Y,Y,,2021-02-26
NCT01797120,FA,NCT01797120-0185,923,OCCUR,Occurrence Indicator,PROGRESSIVE DISEASE,Y,Y,INDUCTION,2021-11-06
NCT01797120,FA,NCT01797120-0185,924,OCCUR,Occurrence Indicator,PROGRESSIVE DISEASE,Y,Y,INDUCTION,2021-11-06
NCT01797120,FA,NCT01797120-0185,925,OCCUR,Occurrence Indicator,DEATH,Y,Y,FOLLOW-UP,2021-12-22
NCT01797120,FA,NCT01797120-0186,926,OCCUR,Occurrence Indicator,INFORMED CONSENT OBTAINED,Y,Y,,2022-10-06
NCT01797120,FA,NCT01797120-0186,927,OCCUR,Occurrence Indicator,RANDOMIZED,Y,Y,,2022-10-26
NCT01797120,FA,NCT01797120-0186,928,OCCUR,Occurrence Indicator,PROGRESSIVE DISEASE,Y,Y,CONTINUATION,2023-09-28
NCT01797120,FA,NCT01797120-0186,929,OCCUR,Occurrence Indicator,PROGRESSIVE DISEASE,Y,Y,CONTINUATION,2023-09-28
NCT01797120,FA,NCT01797120-0186,930,OCCUR,Occurrence Indicator,DEATH,Y,Y,FOLLOW-UP,2024-10-04
NCT01797120,FA,NCT01797120-0187,931,OCCUR,Occurrence Indicator,INFORMED CONSENT OBTAINED,Y,Y,,2021-09-22
NCT01797120,FA,NCT01797120-0187,932,OCCUR,Occurrence Indicator,RANDOMIZED,Y,Y,,2021-10-08
NCT01797120,FA,NCT01797120-0187,933,OCCUR,Occurrence Indicator,PROGRESSIVE DISEASE,Y,Y,CONTINUATION,2025-06-14
NCT01797120,FA,NCT01797120-0187,934,OCCUR,Occurrence Indicator,PROGRESSIVE DISEASE,Y,Y,CONTINUATION,2025-06-14
NCT01797120,FA,NCT01797120-0187,935,OCCUR,Occurrence Indicator,DEATH,Y,Y,FOLLOW-UP,2026-10-30
NCT01797120,FA,NCT01797120-0188,936,OCCUR,Occurrence Indicator,INFORMED CONSENT OBTAINED,Y,Y,,2020-12-25
NCT01797120,FA,NCT01797120-0188,937,OCCUR,Occurrence Indicator,RANDOMIZED,Y,Y,,2021-01-05
NCT01797120,FA,NCT01797120-0188,938,OCCUR,Occurrence Indicator,PROGRESSIVE DISEASE,Y,Y,CONTINUATION,2022-11-09
NCT01797120,FA,NCT01797120-0188,939,OCCUR,Occurrence Indicator,PROGRESSIVE DISEASE,Y,Y,CONTINUATION,2022-11-09
NCT01797120,FA,NCT01797120-0188,940,OCCUR,Occurrence Indicator,DEATH,Y,Y,FOLLOW-UP,2023-10-22
NCT01797120,FA,NCT01797120-0189,941,OCCUR,Occurrence Indicator,INFORMED CONSENT OBTAINED,Y,Y,,2022-08-16
NCT01797120,FA,NCT01797120-0189,942,OCCUR,Occurrence Indicator,RANDOMIZED,Y,Y,,2022-09-05
NCT01797120,FA,NCT01797120-0189,943,OCCUR,Occurrence Indicator,WITHDRAWAL BY SUBJECT,Y,Y,INDUCTION,2023-03-27
NCT01797120,FA,NCT01797120-0189,944,OCCUR,Occurrence Indicator,WITHDRAWAL BY SUBJECT,Y,Y,INDUCTION,2023-03-27
NCT01797120,FA,NCT01797120-0189,945,OCCUR,Occurrence Indicator,WITHDRAWAL BY SUBJECT,Y,Y,FOLLOW-UP,2023-03-27
NCT01797120,FA,NCT01797120-0190,946,OCCUR,Occurrence Indicator,INFORMED CONSENT OBTAINED,Y,Y,,2021-10-05
NCT01797120,FA,NCT01797120-0190,947,OCCUR,Occurrence Indicator,RANDOMIZED,Y,Y,,2021-11-02
NCT01797120,FA,NCT01797120-0190,948,OCCUR,Occurrence Indicator,PROGRESSIVE DISEASE,Y,Y,CONTINUATION,2022-10-05
NCT01797120,FA,NCT01797120-0190,949,OCCUR,Occurrence Indicator,PROGRESSIVE DISEASE,Y,Y,CONTINUATION,2022-10-05
NCT01797120,FA,NCT01797120-0190,950,OCCUR,Occurrence Indicator,LOST TO FOLLOW-UP,Y,Y,FOLLOW-UP,2022-11-21
NCT01797120,FA,NCT01797120-0191,951,OCCUR,Occurrence Indicator,INFORMED CONSENT OBTAINED,Y,Y,,2021-11-16
NCT01797120,FA,NCT01797120-0191,952,OCCUR,Occurrence Indicator,RANDOMIZED,Y,Y,,2021-12-10
NCT01797120,FA,NCT01797120-0191,953,OCCUR,Occurrence Indicator,PROGRESSIVE DISEASE,Y,Y,INDUCTION,2022-08-20
NCT01797120,FA,NCT01797120-0191,954,OCCUR,Occurrence Indicator,PROGRESSIVE DISEASE,Y,Y,INDUCTION,2022-08-20
NCT01797120,FA,NCT01797120-0191,955,OCCUR,Occurrence Indicator,DEATH,Y,Y,FOLLOW-UP,2022-10-20
NCT01797120,FA,NCT01797120-0192,956,OCCUR,Occurrence Indicator,INFORMED CONSENT OBTAINED,Y,Y,,2022-06-17
NCT01797120,FA,NCT01797120-0192,957,OCCUR,Occurrence Indicator,RANDOMIZED,Y,Y,,2022-06-27
NCT01797120,FA,NCT01797120-0192,958,OCCUR,Occurrence Indicator,LOST TO FOLLOW-UP,Y,Y,CONTINUATION,2024-02-13
NCT01797120,FA,NCT01797120-0192,959,OCCUR,Occurrence Indicator,LOST TO FOLLOW-UP,Y,Y,CONTINUATION,2024-02-13
NCT01797120,FA,NCT01797120-0192,960,OCCUR,Occurrence Indicator,LOST TO FOLLOW-UP,Y,Y,FOLLOW-UP,2024-03-27
NCT01797120,FA,NCT01797120-0193,961,OCCUR,Occurrence Indicator,INFORMED CONSENT OBTAINED,Y,Y,,2022-07-01
NCT01797120,FA,NCT01797120-0193,962,OCCUR,Occurrence Indicator,RANDOMIZED,Y,Y,,2022-07-21
NCT01797120,FA,NCT01797120-0193,963,OCCUR,Occurrence Indicator,PROGRESSIVE DISEASE,Y,Y,INDUCTION,2022-10-14
NCT01797120,FA,NCT01797120-0193,964,OCCUR,Occurrence Indicator,PROGRESSIVE DISEASE,Y,Y,INDUCTION,2022-10-14
NCT01797120,FA,NCT01797120-0193,965,OCCUR,Occurrence Indicator,DEATH,Y,Y,FOLLOW-UP,2023-01-27
NCT01797120,FA,NCT01797120-0194,966,OCCUR,Occurrence Indicator,INFORMED CONSENT OBTAINED,Y,Y,,2021-05-08
NCT01797120,FA,NCT01797120-0194,967,OCCUR,Occurrence Indicator,RANDOMIZED,Y,Y,,2021-06-03
NCT01797120,FA,NCT01797120-0194,968,OCCUR,Occurrence Indicator,PROGRESSIVE DISEASE,Y,Y,CONTINUATION,2023-04-07
NCT01797120,FA,NCT01797120-0194,969,OCCUR,Occurrence Indicator,PROGRESSIVE DISEASE,Y,Y,CONTINUATION,2023-04-07
NCT01797120,FA,NCT01797120-0194,970,OCCUR,Occurrence Indicator,DEATH,Y,Y,FOLLOW-UP,2024-06-14
NCT01797120,FA,NCT01797120-0195,971,OCCUR,Occurrence Indicator,INFORMED CONSENT OBTAINED,Y,Y,,2021-12-05
NCT01797120,FA,NCT01797120-0195,972,OCCUR,Occurrence Indicator,RANDOMIZED,Y,Y,,2021-12-20
NCT01797120,FA,NCT01797120-0195,973,OCCUR,Occurrence Indicator,PROGRESSIVE DISEASE,Y,Y,CONTINUATION,2023-02-14
NCT01797120,FA,NCT01797120-0195,974,OCCUR,Occurrence Indicator,PROGRESSIVE DISEASE,Y,Y,CONTINUATION,2023-02-14
NCT01797120,FA,NCT01797120-0195,975,OCCUR,Occurrence Indicator,LOST TO FOLLOW-UP,Y,Y,FOLLOW-UP,2023-03-18
NCT01797120,FA,NCT01797120-0196,976,OCCUR,Occurrence Indicator,INFORMED CONSENT OBTAINED,Y,Y,,2021-11-26
NCT01797120,FA,NCT01797120-0196,977,OCCUR,Occurrence Indicator,RANDOMIZED,Y,Y,,2021-12-24
NCT01797120,FA,NCT01797120-0196,978,OCCUR,Occurrence Indicator,PROGRESSIVE DISEASE,Y,Y,CONTINUATION,2022-11-26
NCT01797120,FA,NCT01797120-0196,979,OCCUR,Occurrence Indicator,PROGRESSIVE DISEASE,Y,Y,CONTINUATION,2022-11-26
NCT01797120,FA,NCT01797120-0196,980,OCCUR,Occurrence Indicator,DEATH,Y,Y,FOLLOW-UP,2022-11-27
NCT01797120,FA,NCT01797120-0197,981,OCCUR,Occurrence Indicator,INFORMED CONSENT OBTAINED,Y,Y,,2022-11-09
NCT01797120,FA,NCT01797120-0197,982,OCCUR,Occurrence Indicator,RANDOMIZED,Y,Y,,2022-11-29
NCT01797120,FA,NCT01797120-0197,983,OCCUR,Occurrence Indicator,PROGRESSIVE DISEASE,Y,Y,INDUCTION,2023-02-22
NCT01797120,FA,NCT01797120-0197,984,OCCUR,Occurrence Indicator,PROGRESSIVE DISEASE,Y,Y,INDUCTION,2023-02-22
NCT01797120,FA,NCT01797120-0197,985,OCCUR,Occurrence Indicator,LOST TO FOLLOW-UP,Y,Y,FOLLOW-UP,2023-06-11
NCT01797120,FA,NCT01797120-0198,986,OCCUR,Occurrence Indicator,INFORMED CONSENT OBTAINED,Y,Y,,2022-01-31
NCT01797120,FA,NCT01797120-0198,987,OCCUR,Occurrence Indicator,RANDOMIZED,Y,Y,,2022-02-12
NCT01797120,FA,NCT01797120-0198,988,OCCUR,Occurrence Indicator,PROGRESSIVE DISEASE,Y,Y,CONTINUATION,2023-01-15
NCT01797120,FA,NCT01797120-0198,989,OCCUR,Occurrence Indicator,PROGRESSIVE DISEASE,Y,Y,CONTINUATION,2023-01-15
NCT01797120,FA,NCT01797120-0198,990,OCCUR,Occurrence Indicator,DEATH,Y,Y,FOLLOW-UP,2023-11-30
NCT01797120,FA,NCT01797120-0199,991,OCCUR,Occurrence Indicator,INFORMED CONSENT OBTAINED,Y,Y,,2022-01-24
NCT01797120,FA,NCT01797120-0199,992,OCCUR,Occurrence Indicator,RANDOMIZED,Y,Y,,2022-02-16
NCT01797120,FA,NCT01797120-0199,993,OCCUR,Occurrence Indicator,PROGRESSIVE DISEASE,Y,Y,INDUCTION,2022-08-04
NCT01797120,FA,NCT01797120-0199,994,OCCUR,Occurrence Indicator,PROGRESSIVE DISEASE,Y,Y,INDUCTION,2022-08-04
NCT01797120,FA,NCT01797120-0199,995,OCCUR,Occurrence Indicator,DEATH,Y,Y,FOLLOW-UP,2023-07-15
NCT01797120,FA,NCT01797120-0200,996,OCCUR,Occurrence Indicator,INFORMED CONSENT OBTAINED,Y,Y,,2021-01-09
NCT01797120,FA,NCT01797120-0200,997,OCCUR,Occurrence Indicator,RANDOMIZED,Y,Y,,2021-01-30
NCT01797120,FA,NCT01797120-0200,998,OCCUR,Occurrence Indicator,PROGRESSIVE DISEASE,Y,Y,INDUCTION,2021-04-25
NCT01797120,FA,NCT01797120-0200,999,OCCUR,Occurrence Indicator,PROGRESSIVE DISEASE,Y,Y,INDUCTION,2021-04-25
NCT01797120,FA,NCT01797120-0200,1000,OCCUR,Occurrence Indicator,DEATH,Y,Y,FOLLOW-UP,2021-08-12
