STUDYID,DOMAIN,USUBJID,TUSEQ,TUTESTCD,TUTEST,TULNKID,TUORRES,TUSTRESC,TULOC,TULAT,TUMETHOD,TUEVAL,EPOCH,VISITNUM,VISIT,TUDTC,TUDY
NCT01797120,TU,NCT01797120-0001,1,TIND,Target Indicator,,Y,Y,,,CT SCAN,INVESTIGATOR,SCREENING,1,SCREENING,2021-08-05,1
NCT01797120,TU,NCT01797120-0001,2,NTIND,Non-Target Indicator,,N,N,,,CT SCAN,INVESTIGATOR,SCREENING,1,SCREENING,2021-08-05,1
NCT01797120,TU,NCT01797120-0001,3,TUMIDENT,Tumor Identification,TL1,TARGET,TARGET,BREAST,RIGHT,CT SCAN,INVESTIGATOR,SCREENING,1,SCREENING,2021-08-05,1
NCT01797120,TU,NCT01797120-0001,4,TUMIDENT,Tumor Identification,TL2,TARGET,TARGET,BREAST,LEFT,CT SCAN,INVESTIGATOR,SCREENING,1,SCREENING,2021-08-05,1
NCT01797120,TU,NCT01797120-0002,5,TIND,Target Indicator,,Y,Y,,,CT SCAN,INVESTIGATOR,SCREENING,1,SCREENING,2022-01-17,1
NCT01797120,TU,NCT01797120-0002,6,NTIND,Non-Target Indicator,,N,N,,,CT SCAN,INVESTIGATOR,SCREENING,1,SCREENING,2022-01-17,1
NCT01797120,TU,NCT01797120-0002,7,TUMIDENT,Tumor Identification,TL1,TARGET,TARGET,BONE,,CT SCAN,INVESTIGATOR,SCREENING,1,SCREENING,2022-01-17,1
NCT01797120,TU,NCT01797120-0002,8,TUMIDENT,Tumor Identification,TL2,TARGET,TARGET,BONE,,CT SCAN,INVESTIGATOR,SCREENING,1,SCREENING,2022-01-17,1
NCT01797120,TU,NCT01797120-0003,9,TIND,Target Indicator,,Y,Y,,,CT SCAN,INVESTIGATOR,SCREENING,1,SCREENING,2021-01-25,1
NCT01797120,TU,NCT01797120-0003,10,NTIND,Non-Target Indicator,,N,N,,,CT SCAN,INVESTIGATOR,SCREENING,1,SCREENING,2021-01-25,1
NCT01797120,TU,NCT01797120-0003,11,TUMIDENT,Tumor Identification,TL1,TARGET,TARGET,SKIN,LEFT,CT SCAN,INVESTIGATOR,SCREENING,1,SCREENING,2021-01-25,1
NCT01797120,TU,NCT01797120-0003,12,TUMIDENT,Tumor Identification,TL2,TARGET,TARGET,LIVER,,CT SCAN,INVESTIGATOR,SCREENING,1,SCREENING,2021-01-25,1
NCT01797120,TU,NCT01797120-0004,13,TIND,Target Indicator,,Y,Y,,,CT SCAN,INVESTIGATOR,SCREENING,1,SCREENING,2021-03-09,1
NCT01797120,TU,NCT01797120-0004,14,NTIND,Non-Target Indicator,,N,N,,,CT SCAN,INVESTIGATOR,SCREENING,1,SCREENING,2021-03-09,1
NCT01797120,TU,NCT01797120-0004,15,TUMIDENT,Tumor Identification,TL1,TARGET,TARGET,BREAST,RIGHT,CT SCAN,INVESTIGATOR,SCREENING,1,SCREENING,2021-03-09,1
NCT01797120,TU,NCT01797120-0005,16,TIND,Target Indicator,,Y,Y,,,CT SCAN,INVESTIGATOR,SCREENING,1,SCREENING,2021-08-23,1
NCT01797120,TU,NCT01797120-0005,17,NTIND,Non-Target Indicator,,N,N,,,CT SCAN,INVESTIGATOR,SCREENING,1,SCREENING,2021-08-23,1
NCT01797120,TU,NCT01797120-0005,18,TUMIDENT,Tumor Identification,TL1,TARGET,TARGET,LIVER,,CT SCAN,INVESTIGATOR,SCREENING,1,SCREENING,2021-08-23,1
NCT01797120,TU,NCT01797120-0005,19,TUMIDENT,Tumor Identification,TL2,TARGET,TARGET,SKIN,RIGHT,CT SCAN,INVESTIGATOR,SCREENING,1,SCREENING,2021-08-23,1
NCT01797120,TU,NCT01797120-0006,20,TIND,Target Indicator,,Y,Y,,,CT SCAN,INVESTIGATOR,SCREENING,1,SCREENING,2022-12-18,1
NCT01797120,TU,NCT01797120-0006,21,NTIND,Non-Target Indicator,,N,N,,,CT SCAN,INVESTIGATOR,SCREENING,1,SCREENING,2022-12-18,1
NCT01797120,TU,NCT01797120-0006,22,TUMIDENT,Tumor Identification,TL1,TARGET,TARGET,LYMPH NODE,LEFT,CT SCAN,INVESTIGATOR,SCREENING,1,SCREENING,2022-12-18,1
NCT01797120,TU,NCT01797120-0007,23,TIND,Target Indicator,,Y,Y,,,CT SCAN,INVESTIGATOR,SCREENING,1,SCREENING,2021-10-19,1
NCT01797120,TU,NCT01797120-0007,24,NTIND,Non-Target Indicator,,N,N,,,CT SCAN,INVESTIGATOR,SCREENING,1,SCREENING,2021-10-19,1
NCT01797120,TU,NCT01797120-0007,25,TUMIDENT,Tumor Identification,TL1,TARGET,TARGET,BREAST,RIGHT,CT SCAN,INVESTIGATOR,SCREENING,1,SCREENING,2021-10-19,1
NCT01797120,TU,NCT01797120-0008,26,TIND,Target Indicator,,Y,Y,,,CT SCAN,INVESTIGATOR,SCREENING,1,SCREENING,2022-12-28,1
NCT01797120,TU,NCT01797120-0008,27,NTIND,Non-Target Indicator,,N,N,,,CT SCAN,INVESTIGATOR,SCREENING,1,SCREENING,2022-12-28,1
NCT01797120,TU,NCT01797120-0008,28,TUMIDENT,Tumor Identification,TL1,TARGET,TARGET,BONE,,CT SCAN,INVESTIGATOR,SCREENING,1,SCREENING,2022-12-28,1
NCT01797120,TU,NCT01797120-0008,29,TUMIDENT,Tumor Identification,TL2,TARGET,TARGET,LUNG,RIGHT,CT SCAN,INVESTIGATOR,SCREENING,1,SCREENING,2022-12-28,1
NCT01797120,TU,NCT01797120-0009,30,TIND,Target Indicator,,Y,Y,,,CT SCAN,INVESTIGATOR,SCREENING,1,SCREENING,2022-12-03,1
NCT01797120,TU,NCT01797120-0009,31,NTIND,Non-Target Indicator,,N,N,,,CT SCAN,INVESTIGATOR,SCREENING,1,SCREENING,2022-12-03,1
NCT01797120,TU,NCT01797120-0009,32,TUMIDENT,Tumor Identification,TL1,TARGET,TARGET,LUNG,BILATERAL,CT SCAN,INVESTIGATOR,SCREENING,1,SCREENING,2022-12-03,1
NCT01797120,TU,NCT01797120-0010,33,TIND,Target Indicator,,Y,Y,,,CT SCAN,INVESTIGATOR,SCREENING,1,SCREENING,2022-12-11,1
NCT01797120,TU,NCT01797120-0010,34,NTIND,Non-Target Indicator,,N,N,,,CT SCAN,INVESTIGATOR,SCREENING,1,SCREENING,2022-12-11,1
NCT01797120,TU,NCT01797120-0010,35,TUMIDENT,Tumor Identification,TL1,TARGET,TARGET,LIVER,,CT SCAN,INVESTIGATOR,SCREENING,1,SCREENING,2022-12-11,1
NCT01797120,TU,NCT01797120-0010,36,TUMIDENT,Tumor Identification,TL2,TARGET,TARGET,LIVER,,CT SCAN,INVESTIGATOR,SCREENING,1,SCREENING,2022-12-11,1
NCT01797120,TU,NCT01797120-0011,37,TIND,Target Indicator,,Y,Y,,,CT SCAN,INVESTIGATOR,SCREENING,1,SCREENING,2022-12-29,1
NCT01797120,TU,NCT01797120-0011,38,NTIND,Non-Target Indicator,,N,N,,,CT SCAN,INVESTIGATOR,SCREENING,1,SCREENING,2022-12-29,1
NCT01797120,TU,NCT01797120-0011,39,TUMIDENT,Tumor Identification,TL1,TARGET,TARGET,LIVER,,CT SCAN,INVESTIGATOR,SCREENING,1,SCREENING,2022-12-29,1
NCT01797120,TU,NCT01797120-0011,40,TUMIDENT,Tumor Identification,TL2,TARGET,TARGET,LYMPH NODE,RIGHT,CT SCAN,INVESTIGATOR,SCREENING,1,SCREENING,2022-12-29,1
NCT01797120,TU,NCT01797120-0011,41,TUMIDENT,Tumor Identification,TL3,TARGET,TARGET,BONE,,CT SCAN,INVESTIGATOR,SCREENING,1,SCREENING,2022-12-29,1
NCT01797120,TU,NCT01797120-0012,42,TIND,Target Indicator,,Y,Y,,,CT SCAN,INVESTIGATOR,SCREENING,1,SCREENING,2022-07-10,1
NCT01797120,TU,NCT01797120-0012,43,NTIND,Non-Target Indicator,,N,N,,,CT SCAN,INVESTIGATOR,SCREENING,1,SCREENING,2022-07-10,1
NCT01797120,TU,NCT01797120-0012,44,TUMIDENT,Tumor Identification,TL1,TARGET,TARGET,LIVER,,CT SCAN,INVESTIGATOR,SCREENING,1,SCREENING,2022-07-10,1
NCT01797120,TU,NCT01797120-0013,45,TIND,Target Indicator,,Y,Y,,,CT SCAN,INVESTIGATOR,SCREENING,1,SCREENING,2021-02-02,1
NCT01797120,TU,NCT01797120-0013,46,NTIND,Non-Target Indicator,,N,N,,,CT SCAN,INVESTIGATOR,SCREENING,1,SCREENING,2021-02-02,1
NCT01797120,TU,NCT01797120-0013,47,TUMIDENT,Tumor Identification,TL1,TARGET,TARGET,PLEURA,LEFT,CT SCAN,INVESTIGATOR,SCREENING,1,SCREENING,2021-02-02,1
NCT01797120,TU,NCT01797120-0013,48,TUMIDENT,Tumor Identification,TL2,TARGET,TARGET,BREAST,LEFT,CT SCAN,INVESTIGATOR,SCREENING,1,SCREENING,2021-02-02,1
NCT01797120,TU,NCT01797120-0013,49,TUMIDENT,Tumor Identification,TL3,TARGET,TARGET,LIVER,,CT SCAN,INVESTIGATOR,SCREENING,1,SCREENING,2021-02-02,1
NCT01797120,TU,NCT01797120-0014,50,TIND,Target Indicator,,Y,Y,,,CT SCAN,INVESTIGATOR,SCREENING,1,SCREENING,2021-01-12,1
NCT01797120,TU,NCT01797120-0014,51,NTIND,Non-Target Indicator,,N,N,,,CT SCAN,INVESTIGATOR,SCREENING,1,SCREENING,2021-01-12,1
NCT01797120,TU,NCT01797120-0014,52,TUMIDENT,Tumor Identification,TL1,TARGET,TARGET,BONE,,CT SCAN,INVESTIGATOR,SCREENING,1,SCREENING,2021-01-12,1
NCT01797120,TU,NCT01797120-0014,53,TUMIDENT,Tumor Identification,TL2,TARGET,TARGET,SKIN,RIGHT,CT SCAN,INVESTIGATOR,SCREENING,1,SCREENING,2021-01-12,1
NCT01797120,TU,NCT01797120-0014,54,TUMIDENT,Tumor Identification,TL3,TARGET,TARGET,LIVER,,CT SCAN,INVESTIGATOR,SCREENING,1,SCREENING,2021-01-12,1
NCT01797120,TU,NCT01797120-0015,55,TIND,Target Indicator,,Y,Y,,,CT SCAN,INVESTIGATOR,SCREENING,1,SCREENING,2022-09-09,1
NCT01797120,TU,NCT01797120-0015,56,NTIND,Non-Target Indicator,,N,N,,,CT SCAN,INVESTIGATOR,SCREENING,1,SCREENING,2022-09-09,1
NCT01797120,TU,NCT01797120-0015,57,TUMIDENT,Tumor Identification,TL1,TARGET,TARGET,BREAST,LEFT,CT SCAN,INVESTIGATOR,SCREENING,1,SCREENING,2022-09-09,1
NCT01797120,TU,NCT01797120-0015,58,TUMIDENT,Tumor Identification,TL2,TARGET,TARGET,LUNG,LEFT,CT SCAN,INVESTIGATOR,SCREENING,1,SCREENING,2022-09-09,1
NCT01797120,TU,NCT01797120-0016,59,TIND,Target Indicator,,Y,Y,,,CT SCAN,INVESTIGATOR,SCREENING,1,SCREENING,2021-08-01,1
NCT01797120,TU,NCT01797120-0016,60,NTIND,Non-Target Indicator,,N,N,,,CT SCAN,INVESTIGATOR,SCREENING,1,SCREENING,2021-08-01,1
NCT01797120,TU,NCT01797120-0016,61,TUMIDENT,Tumor Identification,TL1,TARGET,TARGET,LYMPH NODE,RIGHT,CT SCAN,INVESTIGATOR,SCREENING,1,SCREENING,2021-08-01,1
NCT01797120,TU,NCT01797120-0016,62,TUMIDENT,Tumor Identification,TL2,TARGET,TARGET,LUNG,RIGHT,CT SCAN,INVESTIGATOR,SCREENING,1,SCREENING,2021-08-01,1
NCT01797120,TU,NCT01797120-0017,63,TIND,Target Indicator,,Y,Y,,,CT SCAN,INVESTIGATOR,SCREENING,1,SCREENING,2021-05-19,1
NCT01797120,TU,NCT01797120-0017,64,NTIND,Non-Target Indicator,,N,N,,,CT SCAN,INVESTIGATOR,SCREENING,1,SCREENING,2021-05-19,1
NCT01797120,TU,NCT01797120-0017,65,TUMIDENT,Tumor Identification,TL1,TARGET,TARGET,BREAST,RIGHT,CT SCAN,INVESTIGATOR,SCREENING,1,SCREENING,2021-05-19,1
NCT01797120,TU,NCT01797120-0017,66,TUMIDENT,Tumor Identification,TL2,TARGET,TARGET,LIVER,,CT SCAN,INVESTIGATOR,SCREENING,1,SCREENING,2021-05-19,1
NCT01797120,TU,NCT01797120-0018,67,TIND,Target Indicator,,Y,Y,,,CT SCAN,INVESTIGATOR,SCREENING,1,SCREENING,2022-11-26,1
NCT01797120,TU,NCT01797120-0018,68,NTIND,Non-Target Indicator,,N,N,,,CT SCAN,INVESTIGATOR,SCREENING,1,SCREENING,2022-11-26,1
NCT01797120,TU,NCT01797120-0018,69,TUMIDENT,Tumor Identification,TL1,TARGET,TARGET,SKIN,RIGHT,CT SCAN,INVESTIGATOR,SCREENING,1,SCREENING,2022-11-26,1
NCT01797120,TU,NCT01797120-0018,70,TUMIDENT,Tumor Identification,TL2,TARGET,TARGET,BREAST,RIGHT,CT SCAN,INVESTIGATOR,SCREENING,1,SCREENING,2022-11-26,1
NCT01797120,TU,NCT01797120-0019,71,TIND,Target Indicator,,Y,Y,,,CT SCAN,INVESTIGATOR,SCREENING,1,SCREENING,2022-02-26,1
NCT01797120,TU,NCT01797120-0019,72,NTIND,Non-Target Indicator,,N,N,,,CT SCAN,INVESTIGATOR,SCREENING,1,SCREENING,2022-02-26,1
NCT01797120,TU,NCT01797120-0019,73,TUMIDENT,Tumor Identification,TL1,TARGET,TARGET,LIVER,,CT SCAN,INVESTIGATOR,SCREENING,1,SCREENING,2022-02-26,1
NCT01797120,TU,NCT01797120-0020,74,TIND,Target Indicator,,Y,Y,,,CT SCAN,INVESTIGATOR,SCREENING,1,SCREENING,2022-09-30,1
NCT01797120,TU,NCT01797120-0020,75,NTIND,Non-Target Indicator,,N,N,,,CT SCAN,INVESTIGATOR,SCREENING,1,SCREENING,2022-09-30,1
NCT01797120,TU,NCT01797120-0020,76,TUMIDENT,Tumor Identification,TL1,TARGET,TARGET,PLEURA,LEFT,CT SCAN,INVESTIGATOR,SCREENING,1,SCREENING,2022-09-30,1
NCT01797120,TU,NCT01797120-0021,77,TIND,Target Indicator,,Y,Y,,,CT SCAN,INVESTIGATOR,SCREENING,1,SCREENING,2022-10-31,1
NCT01797120,TU,NCT01797120-0021,78,NTIND,Non-Target Indicator,,N,N,,,CT SCAN,INVESTIGATOR,SCREENING,1,SCREENING,2022-10-31,1
NCT01797120,TU,NCT01797120-0021,79,TUMIDENT,Tumor Identification,TL1,TARGET,TARGET,LIVER,,CT SCAN,INVESTIGATOR,SCREENING,1,SCREENING,2022-10-31,1
NCT01797120,TU,NCT01797120-0022,80,TIND,Target Indicator,,Y,Y,,,CT SCAN,INVESTIGATOR,SCREENING,1,SCREENING,2022-09-16,1
NCT01797120,TU,NCT01797120-0022,81,NTIND,Non-Target Indicator,,N,N,,,CT SCAN,INVESTIGATOR,SCREENING,1,SCREENING,2022-09-16,1
NCT01797120,TU,NCT01797120-0022,82,TUMIDENT,Tumor Identification,TL1,TARGET,TARGET,SKIN,RIGHT,CT SCAN,INVESTIGATOR,SCREENING,1,SCREENING,2022-09-16,1
NCT01797120,TU,NCT01797120-0022,83,TUMIDENT,Tumor Identification,TL2,TARGET,TARGET,BONE,,CT SCAN,INVESTIGATOR,SCREENING,1,SCREENING,2022-09-16,1
NCT01797120,TU,NCT01797120-0023,84,TIND,Target Indicator,,Y,Y,,,CT SCAN,INVESTIGATOR,SCREENING,1,SCREENING,2022-05-04,1
NCT01797120,TU,NCT01797120-0023,85,NTIND,Non-Target Indicator,,N,N,,,CT SCAN,INVESTIGATOR,SCREENING,1,SCREENING,2022-05-04,1
NCT01797120,TU,NCT01797120-0023,86,TUMIDENT,Tumor Identification,TL1,TARGET,TARGET,LYMPH NODE,LEFT,CT SCAN,INVESTIGATOR,SCREENING,1,SCREENING,2022-05-04,1
NCT01797120,TU,NCT01797120-0023,87,TUMIDENT,Tumor Identification,TL2,TARGET,TARGET,BONE,,CT SCAN,INVESTIGATOR,SCREENING,1,SCREENING,2022-05-04,1
NCT01797120,TU,NCT01797120-0024,88,TIND,Target Indicator,,Y,Y,,,CT SCAN,INVESTIGATOR,SCREENING,1,SCREENING,2022-06-24,1
NCT01797120,TU,NCT01797120-0024,89,NTIND,Non-Target Indicator,,N,N,,,CT SCAN,INVESTIGATOR,SCREENING,1,SCREENING,2022-06-24,1
NCT01797120,TU,NCT01797120-0024,90,TUMIDENT,Tumor Identification,TL1,TARGET,TARGET,LIVER,,CT SCAN,INVESTIGATOR,SCREENING,1,SCREENING,2022-06-24,1
NCT01797120,TU,NCT01797120-0024,91,TUMIDENT,Tumor Identification,TL2,TARGET,TARGET,BREAST,RIGHT,CT SCAN,INVESTIGATOR,SCREENING,1,SCREENING,2022-06-24,1
NCT01797120,TU,NCT01797120-0024,92,TUMIDENT,Tumor Identification,TL3,TARGET,TARGET,BONE,,CT SCAN,INVESTIGATOR,SCREENING,1,SCREENING,2022-06-24,1
NCT01797120,TU,NCT01797120-0025,93,TIND,Target Indicator,,Y,Y,,,CT SCAN,INVESTIGATOR,SCREENING,1,SCREENING,2021-08-06,1
NCT01797120,TU,NCT01797120-0025,94,NTIND,Non-Target Indicator,,N,N,,,CT SCAN,INVESTIGATOR,SCREENING,1,SCREENING,2021-08-06,1
NCT01797120,TU,NCT01797120-0025,95,TUMIDENT,Tumor Identification,TL1,TARGET,TARGET,LIVER,,CT SCAN,INVESTIGATOR,SCREENING,1,SCREENING,2021-08-06,1
NCT01797120,TU,NCT01797120-0025,96,TUMIDENT,Tumor Identification,TL2,TARGET,TARGET,BONE,,CT SCAN,INVESTIGATOR,SCREENING,1,SCREENING,2021-08-06,1
NCT01797120,TU,NCT01797120-0025,97,TUMIDENT,Tumor Identification,TL3,TARGET,TARGET,LUNG,LEFT,CT SCAN,INVESTIGATOR,SCREENING,1,SCREENING,2021-08-06,1
NCT01797120,TU,NCT01797120-0026,98,TIND,Target Indicator,,Y,Y,,,CT SCAN,INVESTIGATOR,SCREENING,1,SCREENING,2022-10-26,1
NCT01797120,TU,NCT01797120-0026,99,NTIND,Non-Target Indicator,,N,N,,,CT SCAN,INVESTIGATOR,SCREENING,1,SCREENING,2022-10-26,1
NCT01797120,TU,NCT01797120-0026,100,TUMIDENT,Tumor Identification,TL1,TARGET,TARGET,LUNG,BILATERAL,CT SCAN,INVESTIGATOR,SCREENING,1,SCREENING,2022-10-26,1
NCT01797120,TU,NCT01797120-0027,101,TIND,Target Indicator,,Y,Y,,,CT SCAN,INVESTIGATOR,SCREENING,1,SCREENING,2021-11-04,1
NCT01797120,TU,NCT01797120-0027,102,NTIND,Non-Target Indicator,,N,N,,,CT SCAN,INVESTIGATOR,SCREENING,1,SCREENING,2021-11-04,1
NCT01797120,TU,NCT01797120-0027,103,TUMIDENT,Tumor Identification,TL1,TARGET,TARGET,BREAST,LEFT,CT SCAN,INVESTIGATOR,SCREENING,1,SCREENING,2021-11-04,1
NCT01797120,TU,NCT01797120-0027,104,TUMIDENT,Tumor Identification,TL2,TARGET,TARGET,BREAST,RIGHT,CT SCAN,INVESTIGATOR,SCREENING,1,SCREENING,2021-11-04,1
NCT01797120,TU,NCT01797120-0028,105,TIND,Target Indicator,,Y,Y,,,CT SCAN,INVESTIGATOR,SCREENING,1,SCREENING,2021-06-24,1
NCT01797120,TU,NCT01797120-0028,106,NTIND,Non-Target Indicator,,N,N,,,CT SCAN,INVESTIGATOR,SCREENING,1,SCREENING,2021-06-24,1
NCT01797120,TU,NCT01797120-0028,107,TUMIDENT,Tumor Identification,TL1,TARGET,TARGET,LUNG,RIGHT,CT SCAN,INVESTIGATOR,SCREENING,1,SCREENING,2021-06-24,1
NCT01797120,TU,NCT01797120-0028,108,TUMIDENT,Tumor Identification,TL2,TARGET,TARGET,SKIN,LEFT,CT SCAN,INVESTIGATOR,SCREENING,1,SCREENING,2021-06-24,1
NCT01797120,TU,NCT01797120-0029,109,TIND,Target Indicator,,Y,Y,,,CT SCAN,INVESTIGATOR,SCREENING,1,SCREENING,2021-05-29,1
NCT01797120,TU,NCT01797120-0029,110,NTIND,Non-Target Indicator,,N,N,,,CT SCAN,INVESTIGATOR,SCREENING,1,SCREENING,2021-05-29,1
NCT01797120,TU,NCT01797120-0029,111,TUMIDENT,Tumor Identification,TL1,TARGET,TARGET,LUNG,RIGHT,CT SCAN,INVESTIGATOR,SCREENING,1,SCREENING,2021-05-29,1
NCT01797120,TU,NCT01797120-0029,112,TUMIDENT,Tumor Identification,TL2,TARGET,TARGET,PLEURA,LEFT,CT SCAN,INVESTIGATOR,SCREENING,1,SCREENING,2021-05-29,1
NCT01797120,TU,NCT01797120-0029,113,TUMIDENT,Tumor Identification,TL3,TARGET,TARGET,LIVER,,CT SCAN,INVESTIGATOR,SCREENING,1,SCREENING,2021-05-29,1
NCT01797120,TU,NCT01797120-0030,114,TIND,Target Indicator,,Y,Y,,,CT SCAN,INVESTIGATOR,SCREENING,1,SCREENING,2022-06-26,1
NCT01797120,TU,NCT01797120-0030,115,NTIND,Non-Target Indicator,,N,N,,,CT SCAN,INVESTIGATOR,SCREENING,1,SCREENING,2022-06-26,1
NCT01797120,TU,NCT01797120-0030,116,TUMIDENT,Tumor Identification,TL1,TARGET,TARGET,LUNG,BILATERAL,CT SCAN,INVESTIGATOR,SCREENING,1,SCREENING,2022-06-26,1
NCT01797120,TU,NCT01797120-0031,117,TIND,Target Indicator,,Y,Y,,,CT SCAN,INVESTIGATOR,SCREENING,1,SCREENING,2022-08-03,1
NCT01797120,TU,NCT01797120-0031,118,NTIND,Non-Target Indicator,,N,N,,,CT SCAN,INVESTIGATOR,SCREENING,1,SCREENING,2022-08-03,1
NCT01797120,TU,NCT01797120-0031,119,TUMIDENT,Tumor Identification,TL1,TARGET,TARGET,PLEURA,RIGHT,CT SCAN,INVESTIGATOR,SCREENING,1,SCREENING,2022-08-03,1
NCT01797120,TU,NCT01797120-0032,120,TIND,Target Indicator,,Y,Y,,,CT SCAN,INVESTIGATOR,SCREENING,1,SCREENING,2022-07-02,1
NCT01797120,TU,NCT01797120-0032,121,NTIND,Non-Target Indicator,,N,N,,,CT SCAN,INVESTIGATOR,SCREENING,1,SCREENING,2022-07-02,1
NCT01797120,TU,NCT01797120-0032,122,TUMIDENT,Tumor Identification,TL1,TARGET,TARGET,PLEURA,RIGHT,CT SCAN,INVESTIGATOR,SCREENING,1,SCREENING,2022-07-02,1
NCT01797120,TU,NCT01797120-0032,123,TUMIDENT,Tumor Identification,TL2,TARGET,TARGET,LIVER,,CT SCAN,INVESTIGATOR,SCREENING,1,SCREENING,2022-07-02,1
NCT01797120,TU,NCT01797120-0033,124,TIND,Target Indicator,,Y,Y,,,CT SCAN,INVESTIGATOR,SCREENING,1,SCREENING,2022-01-29,1
NCT01797120,TU,NCT01797120-0033,125,NTIND,Non-Target Indicator,,N,N,,,CT SCAN,INVESTIGATOR,SCREENING,1,SCREENING,2022-01-29,1
NCT01797120,TU,NCT01797120-0033,126,TUMIDENT,Tumor Identification,TL1,TARGET,TARGET,LUNG,RIGHT,CT SCAN,INVESTIGATOR,SCREENING,1,SCREENING,2022-01-29,1
NCT01797120,TU,NCT01797120-0034,127,TIND,Target Indicator,,Y,Y,,,CT SCAN,INVESTIGATOR,SCREENING,1,SCREENING,2021-03-15,1
NCT01797120,TU,NCT01797120-0034,128,NTIND,Non-Target Indicator,,N,N,,,CT SCAN,INVESTIGATOR,SCREENING,1,SCREENING,2021-03-15,1
NCT01797120,TU,NCT01797120-0034,129,TUMIDENT,Tumor Identification,TL1,TARGET,TARGET,SKIN,LEFT,CT SCAN,INVESTIGATOR,SCREENING,1,SCREENING,2021-03-15,1
NCT01797120,TU,NCT01797120-0034,130,TUMIDENT,Tumor Identification,TL2,TARGET,TARGET,LUNG,LEFT,CT SCAN,INVESTIGATOR,SCREENING,1,SCREENING,2021-03-15,1
NCT01797120,TU,NCT01797120-0034,131,TUMIDENT,Tumor Identification,TL3,TARGET,TARGET,LUNG,RIGHT,CT SCAN,INVESTIGATOR,SCREENING,1,SCREENING,2021-03-15,1
NCT01797120,TU,NCT01797120-0035,132,TIND,Target Indicator,,Y,Y,,,CT SCAN,INVESTIGATOR,SCREENING,1,SCREENING,2021-10-25,1
NCT01797120,TU,NCT01797120-0035,133,NTIND,Non-Target Indicator,,N,N,,,CT SCAN,INVESTIGATOR,SCREENING,1,SCREENING,2021-10-25,1
NCT01797120,TU,NCT01797120-0035,134,TUMIDENT,Tumor Identification,TL1,TARGET,TARGET,SKIN,LEFT,CT SCAN,INVESTIGATOR,SCREENING,1,SCREENING,2021-10-25,1
NCT01797120,TU,NCT01797120-0035,135,TUMIDENT,Tumor Identification,TL2,TARGET,TARGET,PLEURA,LEFT,CT SCAN,INVESTIGATOR,SCREENING,1,SCREENING,2021-10-25,1
NCT01797120,TU,NCT01797120-0036,136,TIND,Target Indicator,,Y,Y,,,CT SCAN,INVESTIGATOR,SCREENING,1,SCREENING,2022-01-30,1
NCT01797120,TU,NCT01797120-0036,137,NTIND,Non-Target Indicator,,N,N,,,CT SCAN,INVESTIGATOR,SCREENING,1,SCREENING,2022-01-30,1
NCT01797120,TU,NCT01797120-0036,138,TUMIDENT,Tumor Identification,TL1,TARGET,TARGET,LUNG,LEFT,CT SCAN,INVESTIGATOR,SCREENING,1,SCREENING,2022-01-30,1
NCT01797120,TU,NCT01797120-0036,139,TUMIDENT,Tumor Identification,TL2,TARGET,TARGET,PLEURA,LEFT,CT SCAN,INVESTIGATOR,SCREENING,1,SCREENING,2022-01-30,1
NCT01797120,TU,NCT01797120-0037,140,TIND,Target Indicator,,Y,Y,,,CT SCAN,INVESTIGATOR,SCREENING,1,SCREENING,2022-06-24,1
NCT01797120,TU,NCT01797120-0037,141,NTIND,Non-Target Indicator,,N,N,,,CT SCAN,INVESTIGATOR,SCREENING,1,SCREENING,2022-06-24,1
NCT01797120,TU,NCT01797120-0037,142,TUMIDENT,Tumor Identification,TL1,TARGET,TARGET,LIVER,,CT SCAN,INVESTIGATOR,SCREENING,1,SCREENING,2022-06-24,1
NCT01797120,TU,NCT01797120-0037,143,TUMIDENT,Tumor Identification,TL2,TARGET,TARGET,BREAST,LEFT,CT SCAN,INVESTIGATOR,SCREENING,1,SCREENING,2022-06-24,1
NCT01797120,TU,NCT01797120-0037,144,TUMIDENT,Tumor Identification,TL3,TARGET,TARGET,LIVER,,CT SCAN,INVESTIGATOR,SCREENING,1,SCREENING,2022-06-24,1
NCT01797120,TU,NCT01797120-0038,145,TIND,Target Indicator,,Y,Y,,,CT SCAN,INVESTIGATOR,SCREENING,1,SCREENING,2022-03-06,1
NCT01797120,TU,NCT01797120-0038,146,NTIND,Non-Target Indicator,,N,N,,,CT SCAN,INVESTIGATOR,SCREENING,1,SCREENING,2022-03-06,1
NCT01797120,TU,NCT01797120-0038,147,TUMIDENT,Tumor Identification,TL1,TARGET,TARGET,LIVER,,CT SCAN,INVESTIGATOR,SCREENING,1,SCREENING,2022-03-06,1
NCT01797120,TU,NCT01797120-0038,148,TUMIDENT,Tumor Identification,TL2,TARGET,TARGET,BONE,,CT SCAN,INVESTIGATOR,SCREENING,1,SCREENING,2022-03-06,1
NCT01797120,TU,NCT01797120-0039,149,TIND,Target Indicator,,Y,Y,,,CT SCAN,INVESTIGATOR,SCREENING,1,SCREENING,2021-07-19,1
NCT01797120,TU,NCT01797120-0039,150,NTIND,Non-Target Indicator,,N,N,,,CT SCAN,INVESTIGATOR,SCREENING,1,SCREENING,2021-07-19,1
NCT01797120,TU,NCT01797120-0039,151,TUMIDENT,Tumor Identification,TL1,TARGET,TARGET,BONE,,CT SCAN,INVESTIGATOR,SCREENING,1,SCREENING,2021-07-19,1
NCT01797120,TU,NCT01797120-0039,152,TUMIDENT,Tumor Identification,TL2,TARGET,TARGET,SKIN,LEFT,CT SCAN,INVESTIGATOR,SCREENING,1,SCREENING,2021-07-19,1
NCT01797120,TU,NCT01797120-0040,153,TIND,Target Indicator,,Y,Y,,,CT SCAN,INVESTIGATOR,SCREENING,1,SCREENING,2022-02-28,1
NCT01797120,TU,NCT01797120-0040,154,NTIND,Non-Target Indicator,,N,N,,,CT SCAN,INVESTIGATOR,SCREENING,1,SCREENING,2022-02-28,1
NCT01797120,TU,NCT01797120-0040,155,TUMIDENT,Tumor Identification,TL1,TARGET,TARGET,LIVER,,CT SCAN,INVESTIGATOR,SCREENING,1,SCREENING,2022-02-28,1
NCT01797120,TU,NCT01797120-0041,156,TIND,Target Indicator,,Y,Y,,,CT SCAN,INVESTIGATOR,SCREENING,1,SCREENING,2021-03-03,1
NCT01797120,TU,NCT01797120-0041,157,NTIND,Non-Target Indicator,,N,N,,,CT SCAN,INVESTIGATOR,SCREENING,1,SCREENING,2021-03-03,1
NCT01797120,TU,NCT01797120-0041,158,TUMIDENT,Tumor Identification,TL1,TARGET,TARGET,LUNG,RIGHT,CT SCAN,INVESTIGATOR,SCREENING,1,SCREENING,2021-03-03,1
NCT01797120,TU,NCT01797120-0041,159,TUMIDENT,Tumor Identification,TL2,TARGET,TARGET,BREAST,RIGHT,CT SCAN,INVESTIGATOR,SCREENING,1,SCREENING,2021-03-03,1
NCT01797120,TU,NCT01797120-0042,160,TIND,Target Indicator,,Y,Y,,,CT SCAN,INVESTIGATOR,SCREENING,1,SCREENING,2021-12-08,1
NCT01797120,TU,NCT01797120-0042,161,NTIND,Non-Target Indicator,,N,N,,,CT SCAN,INVESTIGATOR,SCREENING,1,SCREENING,2021-12-08,1
NCT01797120,TU,NCT01797120-0042,162,TUMIDENT,Tumor Identification,TL1,TARGET,TARGET,LUNG,LEFT,CT SCAN,INVESTIGATOR,SCREENING,1,SCREENING,2021-12-08,1
NCT01797120,TU,NCT01797120-0043,163,TIND,Target Indicator,,Y,Y,,,CT SCAN,INVESTIGATOR,SCREENING,1,SCREENING,2021-02-14,1
NCT01797120,TU,NCT01797120-0043,164,NTIND,Non-Target Indicator,,N,N,,,CT SCAN,INVESTIGATOR,SCREENING,1,SCREENING,2021-02-14,1
NCT01797120,TU,NCT01797120-0043,165,TUMIDENT,Tumor Identification,TL1,TARGET,TARGET,LIVER,,CT SCAN,INVESTIGATOR,SCREENING,1,SCREENING,2021-02-14,1
NCT01797120,TU,NCT01797120-0044,166,TIND,Target Indicator,,Y,Y,,,CT SCAN,INVESTIGATOR,SCREENING,1,SCREENING,2021-03-30,1
NCT01797120,TU,NCT01797120-0044,167,NTIND,Non-Target Indicator,,N,N,,,CT SCAN,INVESTIGATOR,SCREENING,1,SCREENING,2021-03-30,1
NCT01797120,TU,NCT01797120-0044,168,TUMIDENT,Tumor Identification,TL1,TARGET,TARGET,LUNG,BILATERAL,CT SCAN,INVESTIGATOR,SCREENING,1,SCREENING,2021-03-30,1
NCT01797120,TU,NCT01797120-0045,169,TIND,Target Indicator,,Y,Y,,,CT SCAN,INVESTIGATOR,SCREENING,1,SCREENING,2021-02-03,1
NCT01797120,TU,NCT01797120-0045,170,NTIND,Non-Target Indicator,,N,N,,,CT SCAN,INVESTIGATOR,SCREENING,1,SCREENING,2021-02-03,1
NCT01797120,TU,NCT01797120-0045,171,TUMIDENT,Tumor Identification,TL1,TARGET,TARGET,LUNG,RIGHT,CT SCAN,INVESTIGATOR,SCREENING,1,SCREENING,2021-02-03,1
NCT01797120,TU,NCT01797120-0045,172,TUMIDENT,Tumor Identification,TL2,TARGET,TARGET,BONE,,CT SCAN,INVESTIGATOR,SCREENING,1,SCREENING,2021-02-03,1
NCT01797120,TU,NCT01797120-0046,173,TIND,Target Indicator,,Y,Y,,,CT SCAN,INVESTIGATOR,SCREENING,1,SCREENING,2022-10-08,1
NCT01797120,TU,NCT01797120-0046,174,NTIND,Non-Target Indicator,,N,N,,,CT SCAN,INVESTIGATOR,SCREENING,1,SCREENING,2022-10-08,1
NCT01797120,TU,NCT01797120-0046,175,TUMIDENT,Tumor Identification,TL1,TARGET,TARGET,BONE,,CT SCAN,INVESTIGATOR,SCREENING,1,SCREENING,2022-10-08,1
NCT01797120,TU,NCT01797120-0046,176,TUMIDENT,Tumor Identification,TL2,TARGET,TARGET,BREAST,RIGHT,CT SCAN,INVESTIGATOR,SCREENING,1,SCREENING,2022-10-08,1
NCT01797120,TU,NCT01797120-0047,177,TIND,Target Indicator,,Y,Y,,,CT SCAN,INVESTIGATOR,SCREENING,1,SCREENING,2021-08-21,1
NCT01797120,TU,NCT01797120-0047,178,NTIND,Non-Target Indicator,,N,N,,,CT SCAN,INVESTIGATOR,SCREENING,1,SCREENING,2021-08-21,1
NCT01797120,TU,NCT01797120-0047,179,TUMIDENT,Tumor Identification,TL1,TARGET,TARGET,LIVER,,CT SCAN,INVESTIGATOR,SCREENING,1,SCREENING,2021-08-21,1
NCT01797120,TU,NCT01797120-0047,180,TUMIDENT,Tumor Identification,TL2,TARGET,TARGET,BONE,,CT SCAN,INVESTIGATOR,SCREENING,1,SCREENING,2021-08-21,1
NCT01797120,TU,NCT01797120-0048,181,TIND,Target Indicator,,Y,Y,,,CT SCAN,INVESTIGATOR,SCREENING,1,SCREENING,2021-02-06,1
NCT01797120,TU,NCT01797120-0048,182,NTIND,Non-Target Indicator,,N,N,,,CT SCAN,INVESTIGATOR,SCREENING,1,SCREENING,2021-02-06,1
NCT01797120,TU,NCT01797120-0048,183,TUMIDENT,Tumor Identification,TL1,TARGET,TARGET,LUNG,BILATERAL,CT SCAN,INVESTIGATOR,SCREENING,1,SCREENING,2021-02-06,1
NCT01797120,TU,NCT01797120-0049,184,TIND,Target Indicator,,Y,Y,,,CT SCAN,INVESTIGATOR,SCREENING,1,SCREENING,2022-04-05,1
NCT01797120,TU,NCT01797120-0049,185,NTIND,Non-Target Indicator,,N,N,,,CT SCAN,INVESTIGATOR,SCREENING,1,SCREENING,2022-04-05,1
NCT01797120,TU,NCT01797120-0049,186,TUMIDENT,Tumor Identification,TL1,TARGET,TARGET,SKIN,RIGHT,CT SCAN,INVESTIGATOR,SCREENING,1,SCREENING,2022-04-05,1
NCT01797120,TU,NCT01797120-0049,187,TUMIDENT,Tumor Identification,TL2,TARGET,TARGET,SKIN,LEFT,CT SCAN,INVESTIGATOR,SCREENING,1,SCREENING,2022-04-05,1
NCT01797120,TU,NCT01797120-0050,188,TIND,Target Indicator,,Y,Y,,,CT SCAN,INVESTIGATOR,SCREENING,1,SCREENING,2021-10-18,1
NCT01797120,TU,NCT01797120-0050,189,NTIND,Non-Target Indicator,,N,N,,,CT SCAN,INVESTIGATOR,SCREENING,1,SCREENING,2021-10-18,1
NCT01797120,TU,NCT01797120-0050,190,TUMIDENT,Tumor Identification,TL1,TARGET,TARGET,BREAST,RIGHT,CT SCAN,INVESTIGATOR,SCREENING,1,SCREENING,2021-10-18,1
NCT01797120,TU,NCT01797120-0050,191,TUMIDENT,Tumor Identification,TL2,TARGET,TARGET,LUNG,LEFT,CT SCAN,INVESTIGATOR,SCREENING,1,SCREENING,2021-10-18,1
NCT01797120,TU,NCT01797120-0051,192,TIND,Target Indicator,,Y,Y,,,CT SCAN,INVESTIGATOR,SCREENING,1,SCREENING,2021-07-17,1
NCT01797120,TU,NCT01797120-0051,193,NTIND,Non-Target Indicator,,N,N,,,CT SCAN,INVESTIGATOR,SCREENING,1,SCREENING,2021-07-17,1
NCT01797120,TU,NCT01797120-0051,194,TUMIDENT,Tumor Identification,TL1,TARGET,TARGET,LUNG,BILATERAL,CT SCAN,INVESTIGATOR,SCREENING,1,SCREENING,2021-07-17,1
NCT01797120,TU,NCT01797120-0051,195,TUMIDENT,Tumor Identification,TL2,TARGET,TARGET,LIVER,,CT SCAN,INVESTIGATOR,SCREENING,1,SCREENING,2021-07-17,1
NCT01797120,TU,NCT01797120-0051,196,TUMIDENT,Tumor Identification,TL3,TARGET,TARGET,SKIN,RIGHT,CT SCAN,INVESTIGATOR,SCREENING,1,SCREENING,2021-07-17,1
NCT01797120,TU,NCT01797120-0052,197,TIND,Target Indicator,,Y,Y,,,CT SCAN,INVESTIGATOR,SCREENING,1,SCREENING,2021-09-12,1
NCT01797120,TU,NCT01797120-0052,198,NTIND,Non-Target Indicator,,N,N,,,CT SCAN,INVESTIGATOR,SCREENING,1,SCREENING,2021-09-12,1
NCT01797120,TU,NCT01797120-0052,199,TUMIDENT,Tumor Identification,TL1,TARGET,TARGET,LUNG,BILATERAL,CT SCAN,INVESTIGATOR,SCREENING,1,SCREENING,2021-09-12,1
NCT01797120,TU,NCT01797120-0052,200,TUMIDENT,Tumor Identification,TL2,TARGET,TARGET,LUNG,RIGHT,CT SCAN,INVESTIGATOR,SCREENING,1,SCREENING,2021-09-12,1
NCT01797120,TU,NCT01797120-0052,201,TUMIDENT,Tumor Identification,TL3,TARGET,TARGET,BONE,,CT SCAN,INVESTIGATOR,SCREENING,1,SCREENING,2021-09-12,1
NCT01797120,TU,NCT01797120-0053,202,TIND,Target Indicator,,Y,Y,,,CT SCAN,INVESTIGATOR,SCREENING,1,SCREENING,2021-03-22,1
NCT01797120,TU,NCT01797120-0053,203,NTIND,Non-Target Indicator,,N,N,,,CT SCAN,INVESTIGATOR,SCREENING,1,SCREENING,2021-03-22,1
NCT01797120,TU,NCT01797120-0053,204,TUMIDENT,Tumor Identification,TL1,TARGET,TARGET,BONE,,CT SCAN,INVESTIGATOR,SCREENING,1,SCREENING,2021-03-22,1
NCT01797120,TU,NCT01797120-0053,205,TUMIDENT,Tumor Identification,TL2,TARGET,TARGET,BREAST,RIGHT,CT SCAN,INVESTIGATOR,SCREENING,1,SCREENING,2021-03-22,1
NCT01797120,TU,NCT01797120-0054,206,TIND,Target Indicator,,Y,Y,,,CT SCAN,INVESTIGATOR,SCREENING,1,SCREENING,2022-03-23,1
NCT01797120,TU,NCT01797120-0054,207,NTIND,Non-Target Indicator,,N,N,,,CT SCAN,INVESTIGATOR,SCREENING,1,SCREENING,2022-03-23,1
NCT01797120,TU,NCT01797120-0054,208,TUMIDENT,Tumor Identification,TL1,TARGET,TARGET,BREAST,LEFT,CT SCAN,INVESTIGATOR,SCREENING,1,SCREENING,2022-03-23,1
NCT01797120,TU,NCT01797120-0054,209,TUMIDENT,Tumor Identification,TL2,TARGET,TARGET,LIVER,,CT SCAN,INVESTIGATOR,SCREENING,1,SCREENING,2022-03-23,1
NCT01797120,TU,NCT01797120-0055,210,TIND,Target Indicator,,Y,Y,,,CT SCAN,INVESTIGATOR,SCREENING,1,SCREENING,2021-05-17,1
NCT01797120,TU,NCT01797120-0055,211,NTIND,Non-Target Indicator,,N,N,,,CT SCAN,INVESTIGATOR,SCREENING,1,SCREENING,2021-05-17,1
NCT01797120,TU,NCT01797120-0055,212,TUMIDENT,Tumor Identification,TL1,TARGET,TARGET,BONE,,CT SCAN,INVESTIGATOR,SCREENING,1,SCREENING,2021-05-17,1
NCT01797120,TU,NCT01797120-0055,213,TUMIDENT,Tumor Identification,TL2,TARGET,TARGET,BREAST,RIGHT,CT SCAN,INVESTIGATOR,SCREENING,1,SCREENING,2021-05-17,1
NCT01797120,TU,NCT01797120-0056,214,TIND,Target Indicator,,Y,Y,,,CT SCAN,INVESTIGATOR,SCREENING,1,SCREENING,2021-07-09,1
NCT01797120,TU,NCT01797120-0056,215,NTIND,Non-Target Indicator,,N,N,,,CT SCAN,INVESTIGATOR,SCREENING,1,SCREENING,2021-07-09,1
NCT01797120,TU,NCT01797120-0056,216,TUMIDENT,Tumor Identification,TL1,TARGET,TARGET,LYMPH NODE,LEFT,CT SCAN,INVESTIGATOR,SCREENING,1,SCREENING,2021-07-09,1
NCT01797120,TU,NCT01797120-0056,217,TUMIDENT,Tumor Identification,TL2,TARGET,TARGET,BONE,,CT SCAN,INVESTIGATOR,SCREENING,1,SCREENING,2021-07-09,1
NCT01797120,TU,NCT01797120-0057,218,TIND,Target Indicator,,Y,Y,,,CT SCAN,INVESTIGATOR,SCREENING,1,SCREENING,2021-05-10,1
NCT01797120,TU,NCT01797120-0057,219,NTIND,Non-Target Indicator,,N,N,,,CT SCAN,INVESTIGATOR,SCREENING,1,SCREENING,2021-05-10,1
NCT01797120,TU,NCT01797120-0057,220,TUMIDENT,Tumor Identification,TL1,TARGET,TARGET,LYMPH NODE,RIGHT,CT SCAN,INVESTIGATOR,SCREENING,1,SCREENING,2021-05-10,1
NCT01797120,TU,NCT01797120-0057,221,TUMIDENT,Tumor Identification,TL2,TARGET,TARGET,LUNG,LEFT,CT SCAN,INVESTIGATOR,SCREENING,1,SCREENING,2021-05-10,1
NCT01797120,TU,NCT01797120-0058,222,TIND,Target Indicator,,Y,Y,,,CT SCAN,INVESTIGATOR,SCREENING,1,SCREENING,2021-07-29,1
NCT01797120,TU,NCT01797120-0058,223,NTIND,Non-Target Indicator,,N,N,,,CT SCAN,INVESTIGATOR,SCREENING,1,SCREENING,2021-07-29,1
NCT01797120,TU,NCT01797120-0058,224,TUMIDENT,Tumor Identification,TL1,TARGET,TARGET,BREAST,RIGHT,CT SCAN,INVESTIGATOR,SCREENING,1,SCREENING,2021-07-29,1
NCT01797120,TU,NCT01797120-0059,225,TIND,Target Indicator,,Y,Y,,,CT SCAN,INVESTIGATOR,SCREENING,1,SCREENING,2022-01-04,1
NCT01797120,TU,NCT01797120-0059,226,NTIND,Non-Target Indicator,,N,N,,,CT SCAN,INVESTIGATOR,SCREENING,1,SCREENING,2022-01-04,1
NCT01797120,TU,NCT01797120-0059,227,TUMIDENT,Tumor Identification,TL1,TARGET,TARGET,BONE,,CT SCAN,INVESTIGATOR,SCREENING,1,SCREENING,2022-01-04,1
NCT01797120,TU,NCT01797120-0059,228,TUMIDENT,Tumor Identification,TL2,TARGET,TARGET,BONE,,CT SCAN,INVESTIGATOR,SCREENING,1,SCREENING,2022-01-04,1
NCT01797120,TU,NCT01797120-0059,229,TUMIDENT,Tumor Identification,TL3,TARGET,TARGET,LUNG,LEFT,CT SCAN,INVESTIGATOR,SCREENING,1,SCREENING,2022-01-04,1
NCT01797120,TU,NCT01797120-0060,230,TIND,Target Indicator,,Y,Y,,,CT SCAN,INVESTIGATOR,SCREENING,1,SCREENING,2021-10-19,1
NCT01797120,TU,NCT01797120-0060,231,NTIND,Non-Target Indicator,,N,N,,,CT SCAN,INVESTIGATOR,SCREENING,1,SCREENING,2021-10-19,1
NCT01797120,TU,NCT01797120-0060,232,TUMIDENT,Tumor Identification,TL1,TARGET,TARGET,LUNG,RIGHT,CT SCAN,INVESTIGATOR,SCREENING,1,SCREENING,2021-10-19,1
NCT01797120,TU,NCT01797120-0060,233,TUMIDENT,Tumor Identification,TL2,TARGET,TARGET,LUNG,RIGHT,CT SCAN,INVESTIGATOR,SCREENING,1,SCREENING,2021-10-19,1
NCT01797120,TU,NCT01797120-0061,234,TIND,Target Indicator,,Y,Y,,,CT SCAN,INVESTIGATOR,SCREENING,1,SCREENING,2022-01-12,1
NCT01797120,TU,NCT01797120-0061,235,NTIND,Non-Target Indicator,,N,N,,,CT SCAN,INVESTIGATOR,SCREENING,1,SCREENING,2022-01-12,1
NCT01797120,TU,NCT01797120-0061,236,TUMIDENT,Tumor Identification,TL1,TARGET,TARGET,LUNG,RIGHT,CT SCAN,INVESTIGATOR,SCREENING,1,SCREENING,2022-01-12,1
NCT01797120,TU,NCT01797120-0061,237,TUMIDENT,Tumor Identification,TL2,TARGET,TARGET,BREAST,LEFT,CT SCAN,INVESTIGATOR,SCREENING,1,SCREENING,2022-01-12,1
NCT01797120,TU,NCT01797120-0061,238,TUMIDENT,Tumor Identification,TL3,TARGET,TARGET,BREAST,LEFT,CT SCAN,INVESTIGATOR,SCREENING,1,SCREENING,2022-01-12,1
NCT01797120,TU,NCT01797120-0062,239,TIND,Target Indicator,,Y,Y,,,CT SCAN,INVESTIGATOR,SCREENING,1,SCREENING,2021-12-14,1
NCT01797120,TU,NCT01797120-0062,240,NTIND,Non-Target Indicator,,N,N,,,CT SCAN,INVESTIGATOR,SCREENING,1,SCREENING,2021-12-14,1
NCT01797120,TU,NCT01797120-0062,241,TUMIDENT,Tumor Identification,TL1,TARGET,TARGET,LIVER,,CT SCAN,INVESTIGATOR,SCREENING,1,SCREENING,2021-12-14,1
NCT01797120,TU,NCT01797120-0062,242,TUMIDENT,Tumor Identification,TL2,TARGET,TARGET,BONE,,CT SCAN,INVESTIGATOR,SCREENING,1,SCREENING,2021-12-14,1
NCT01797120,TU,NCT01797120-0063,243,TIND,Target Indicator,,Y,Y,,,CT SCAN,INVESTIGATOR,SCREENING,1,SCREENING,2021-06-18,1
NCT01797120,TU,NCT01797120-0063,244,NTIND,Non-Target Indicator,,N,N,,,CT SCAN,INVESTIGATOR,SCREENING,1,SCREENING,2021-06-18,1
NCT01797120,TU,NCT01797120-0063,245,TUMIDENT,Tumor Identification,TL1,TARGET,TARGET,LIVER,,CT SCAN,INVESTIGATOR,SCREENING,1,SCREENING,2021-06-18,1
NCT01797120,TU,NCT01797120-0063,246,TUMIDENT,Tumor Identification,TL2,TARGET,TARGET,SKIN,RIGHT,CT SCAN,INVESTIGATOR,SCREENING,1,SCREENING,2021-06-18,1
NCT01797120,TU,NCT01797120-0064,247,TIND,Target Indicator,,Y,Y,,,CT SCAN,INVESTIGATOR,SCREENING,1,SCREENING,2021-06-26,1
NCT01797120,TU,NCT01797120-0064,248,NTIND,Non-Target Indicator,,N,N,,,CT SCAN,INVESTIGATOR,SCREENING,1,SCREENING,2021-06-26,1
NCT01797120,TU,NCT01797120-0064,249,TUMIDENT,Tumor Identification,TL1,TARGET,TARGET,LIVER,,CT SCAN,INVESTIGATOR,SCREENING,1,SCREENING,2021-06-26,1
NCT01797120,TU,NCT01797120-0064,250,TUMIDENT,Tumor Identification,TL2,TARGET,TARGET,LIVER,,CT SCAN,INVESTIGATOR,SCREENING,1,SCREENING,2021-06-26,1
NCT01797120,TU,NCT01797120-0065,251,TIND,Target Indicator,,Y,Y,,,CT SCAN,INVESTIGATOR,SCREENING,1,SCREENING,2022-06-22,1
NCT01797120,TU,NCT01797120-0065,252,NTIND,Non-Target Indicator,,N,N,,,CT SCAN,INVESTIGATOR,SCREENING,1,SCREENING,2022-06-22,1
NCT01797120,TU,NCT01797120-0065,253,TUMIDENT,Tumor Identification,TL1,TARGET,TARGET,BONE,,CT SCAN,INVESTIGATOR,SCREENING,1,SCREENING,2022-06-22,1
NCT01797120,TU,NCT01797120-0065,254,TUMIDENT,Tumor Identification,TL2,TARGET,TARGET,LIVER,,CT SCAN,INVESTIGATOR,SCREENING,1,SCREENING,2022-06-22,1
NCT01797120,TU,NCT01797120-0066,255,TIND,Target Indicator,,Y,Y,,,CT SCAN,INVESTIGATOR,SCREENING,1,SCREENING,2021-11-20,1
NCT01797120,TU,NCT01797120-0066,256,NTIND,Non-Target Indicator,,N,N,,,CT SCAN,INVESTIGATOR,SCREENING,1,SCREENING,2021-11-20,1
NCT01797120,TU,NCT01797120-0066,257,TUMIDENT,Tumor Identification,TL1,TARGET,TARGET,BONE,,CT SCAN,INVESTIGATOR,SCREENING,1,SCREENING,2021-11-20,1
NCT01797120,TU,NCT01797120-0066,258,TUMIDENT,Tumor Identification,TL2,TARGET,TARGET,BREAST,RIGHT,CT SCAN,INVESTIGATOR,SCREENING,1,SCREENING,2021-11-20,1
NCT01797120,TU,NCT01797120-0067,259,TIND,Target Indicator,,Y,Y,,,CT SCAN,INVESTIGATOR,SCREENING,1,SCREENING,2022-05-24,1
NCT01797120,TU,NCT01797120-0067,260,NTIND,Non-Target Indicator,,N,N,,,CT SCAN,INVESTIGATOR,SCREENING,1,SCREENING,2022-05-24,1
NCT01797120,TU,NCT01797120-0067,261,TUMIDENT,Tumor Identification,TL1,TARGET,TARGET,BREAST,RIGHT,CT SCAN,INVESTIGATOR,SCREENING,1,SCREENING,2022-05-24,1
NCT01797120,TU,NCT01797120-0067,262,TUMIDENT,Tumor Identification,TL2,TARGET,TARGET,LUNG,RIGHT,CT SCAN,INVESTIGATOR,SCREENING,1,SCREENING,2022-05-24,1
NCT01797120,TU,NCT01797120-0068,263,TIND,Target Indicator,,Y,Y,,,CT SCAN,INVESTIGATOR,SCREENING,1,SCREENING,2021-04-25,1
NCT01797120,TU,NCT01797120-0068,264,NTIND,Non-Target Indicator,,N,N,,,CT SCAN,INVESTIGATOR,SCREENING,1,SCREENING,2021-04-25,1
NCT01797120,TU,NCT01797120-0068,265,TUMIDENT,Tumor Identification,TL1,TARGET,TARGET,BREAST,LEFT,CT SCAN,INVESTIGATOR,SCREENING,1,SCREENING,2021-04-25,1
NCT01797120,TU,NCT01797120-0068,266,TUMIDENT,Tumor Identification,TL2,TARGET,TARGET,LIVER,,CT SCAN,INVESTIGATOR,SCREENING,1,SCREENING,2021-04-25,1
NCT01797120,TU,NCT01797120-0069,267,TIND,Target Indicator,,Y,Y,,,CT SCAN,INVESTIGATOR,SCREENING,1,SCREENING,2021-01-30,1
NCT01797120,TU,NCT01797120-0069,268,NTIND,Non-Target Indicator,,N,N,,,CT SCAN,INVESTIGATOR,SCREENING,1,SCREENING,2021-01-30,1
NCT01797120,TU,NCT01797120-0069,269,TUMIDENT,Tumor Identification,TL1,TARGET,TARGET,LIVER,,CT SCAN,INVESTIGATOR,SCREENING,1,SCREENING,2021-01-30,1
NCT01797120,TU,NCT01797120-0069,270,TUMIDENT,Tumor Identification,TL2,TARGET,TARGET,LYMPH NODE,LEFT,CT SCAN,INVESTIGATOR,SCREENING,1,SCREENING,2021-01-30,1
NCT01797120,TU,NCT01797120-0070,271,TIND,Target Indicator,,Y,Y,,,CT SCAN,INVESTIGATOR,SCREENING,1,SCREENING,2021-10-17,1
NCT01797120,TU,NCT01797120-0070,272,NTIND,Non-Target Indicator,,N,N,,,CT SCAN,INVESTIGATOR,SCREENING,1,SCREENING,2021-10-17,1
NCT01797120,TU,NCT01797120-0070,273,TUMIDENT,Tumor Identification,TL1,TARGET,TARGET,BONE,,CT SCAN,INVESTIGATOR,SCREENING,1,SCREENING,2021-10-17,1
NCT01797120,TU,NCT01797120-0071,274,TIND,Target Indicator,,Y,Y,,,CT SCAN,INVESTIGATOR,SCREENING,1,SCREENING,2021-05-27,1
NCT01797120,TU,NCT01797120-0071,275,NTIND,Non-Target Indicator,,N,N,,,CT SCAN,INVESTIGATOR,SCREENING,1,SCREENING,2021-05-27,1
NCT01797120,TU,NCT01797120-0071,276,TUMIDENT,Tumor Identification,TL1,TARGET,TARGET,BREAST,LEFT,CT SCAN,INVESTIGATOR,SCREENING,1,SCREENING,2021-05-27,1
NCT01797120,TU,NCT01797120-0072,277,TIND,Target Indicator,,Y,Y,,,CT SCAN,INVESTIGATOR,SCREENING,1,SCREENING,2021-10-01,1
NCT01797120,TU,NCT01797120-0072,278,NTIND,Non-Target Indicator,,N,N,,,CT SCAN,INVESTIGATOR,SCREENING,1,SCREENING,2021-10-01,1
NCT01797120,TU,NCT01797120-0072,279,TUMIDENT,Tumor Identification,TL1,TARGET,TARGET,SKIN,LEFT,CT SCAN,INVESTIGATOR,SCREENING,1,SCREENING,2021-10-01,1
NCT01797120,TU,NCT01797120-0073,280,TIND,Target Indicator,,Y,Y,,,CT SCAN,INVESTIGATOR,SCREENING,1,SCREENING,2021-08-10,1
NCT01797120,TU,NCT01797120-0073,281,NTIND,Non-Target Indicator,,N,N,,,CT SCAN,INVESTIGATOR,SCREENING,1,SCREENING,2021-08-10,1
NCT01797120,TU,NCT01797120-0073,282,TUMIDENT,Tumor Identification,TL1,TARGET,TARGET,BREAST,LEFT,CT SCAN,INVESTIGATOR,SCREENING,1,SCREENING,2021-08-10,1
NCT01797120,TU,NCT01797120-0073,283,TUMIDENT,Tumor Identification,TL2,TARGET,TARGET,LIVER,,CT SCAN,INVESTIGATOR,SCREENING,1,SCREENING,2021-08-10,1
NCT01797120,TU,NCT01797120-0074,284,TIND,Target Indicator,,Y,Y,,,CT SCAN,INVESTIGATOR,SCREENING,1,SCREENING,2021-12-07,1
NCT01797120,TU,NCT01797120-0074,285,NTIND,Non-Target Indicator,,N,N,,,CT SCAN,INVESTIGATOR,SCREENING,1,SCREENING,2021-12-07,1
NCT01797120,TU,NCT01797120-0074,286,TUMIDENT,Tumor Identification,TL1,TARGET,TARGET,LYMPH NODE,RIGHT,CT SCAN,INVESTIGATOR,SCREENING,1,SCREENING,2021-12-07,1
NCT01797120,TU,NCT01797120-0074,287,TUMIDENT,Tumor Identification,TL2,TARGET,TARGET,SKIN,LEFT,CT SCAN,INVESTIGATOR,SCREENING,1,SCREENING,2021-12-07,1
NCT01797120,TU,NCT01797120-0074,288,TUMIDENT,Tumor Identification,TL3,TARGET,TARGET,PLEURA,RIGHT,CT SCAN,INVESTIGATOR,SCREENING,1,SCREENING,2021-12-07,1
NCT01797120,TU,NCT01797120-0075,289,TIND,Target Indicator,,Y,Y,,,CT SCAN,INVESTIGATOR,SCREENING,1,SCREENING,2022-05-25,1
NCT01797120,TU,NCT01797120-0075,290,NTIND,Non-Target Indicator,,N,N,,,CT SCAN,INVESTIGATOR,SCREENING,1,SCREENING,2022-05-25,1
NCT01797120,TU,NCT01797120-0075,291,TUMIDENT,Tumor Identification,TL1,TARGET,TARGET,SKIN,LEFT,CT SCAN,INVESTIGATOR,SCREENING,1,SCREENING,2022-05-25,1
NCT01797120,TU,NCT01797120-0075,292,TUMIDENT,Tumor Identification,TL2,TARGET,TARGET,PLEURA,RIGHT,CT SCAN,INVESTIGATOR,SCREENING,1,SCREENING,2022-05-25,1
NCT01797120,TU,NCT01797120-0076,293,TIND,Target Indicator,,Y,Y,,,CT SCAN,INVESTIGATOR,SCREENING,1,SCREENING,2022-05-30,1
NCT01797120,TU,NCT01797120-0076,294,NTIND,Non-Target Indicator,,N,N,,,CT SCAN,INVESTIGATOR,SCREENING,1,SCREENING,2022-05-30,1
NCT01797120,TU,NCT01797120-0076,295,TUMIDENT,Tumor Identification,TL1,TARGET,TARGET,BONE,,CT SCAN,INVESTIGATOR,SCREENING,1,SCREENING,2022-05-30,1
NCT01797120,TU,NCT01797120-0076,296,TUMIDENT,Tumor Identification,TL2,TARGET,TARGET,LIVER,,CT SCAN,INVESTIGATOR,SCREENING,1,SCREENING,2022-05-30,1
NCT01797120,TU,NCT01797120-0076,297,TUMIDENT,Tumor Identification,TL3,TARGET,TARGET,BONE,,CT SCAN,INVESTIGATOR,SCREENING,1,SCREENING,2022-05-30,1
NCT01797120,TU,NCT01797120-0077,298,TIND,Target Indicator,,Y,Y,,,CT SCAN,INVESTIGATOR,SCREENING,1,SCREENING,2021-03-11,1
NCT01797120,TU,NCT01797120-0077,299,NTIND,Non-Target Indicator,,N,N,,,CT SCAN,INVESTIGATOR,SCREENING,1,SCREENING,2021-03-11,1
NCT01797120,TU,NCT01797120-0077,300,TUMIDENT,Tumor Identification,TL1,TARGET,TARGET,LIVER,,CT SCAN,INVESTIGATOR,SCREENING,1,SCREENING,2021-03-11,1
NCT01797120,TU,NCT01797120-0077,301,TUMIDENT,Tumor Identification,TL2,TARGET,TARGET,SKIN,LEFT,CT SCAN,INVESTIGATOR,SCREENING,1,SCREENING,2021-03-11,1
NCT01797120,TU,NCT01797120-0078,302,TIND,Target Indicator,,Y,Y,,,CT SCAN,INVESTIGATOR,SCREENING,1,SCREENING,2021-12-24,1
NCT01797120,TU,NCT01797120-0078,303,NTIND,Non-Target Indicator,,N,N,,,CT SCAN,INVESTIGATOR,SCREENING,1,SCREENING,2021-12-24,1
NCT01797120,TU,NCT01797120-0078,304,TUMIDENT,Tumor Identification,TL1,TARGET,TARGET,BREAST,RIGHT,CT SCAN,INVESTIGATOR,SCREENING,1,SCREENING,2021-12-24,1
NCT01797120,TU,NCT01797120-0078,305,TUMIDENT,Tumor Identification,TL2,TARGET,TARGET,LUNG,LEFT,CT SCAN,INVESTIGATOR,SCREENING,1,SCREENING,2021-12-24,1
NCT01797120,TU,NCT01797120-0078,306,TUMIDENT,Tumor Identification,TL3,TARGET,TARGET,BONE,,CT SCAN,INVESTIGATOR,SCREENING,1,SCREENING,2021-12-24,1
NCT01797120,TU,NCT01797120-0079,307,TIND,Target Indicator,,Y,Y,,,CT SCAN,INVESTIGATOR,SCREENING,1,SCREENING,2022-07-11,1
NCT01797120,TU,NCT01797120-0079,308,NTIND,Non-Target Indicator,,N,N,,,CT SCAN,INVESTIGATOR,SCREENING,1,SCREENING,2022-07-11,1
NCT01797120,TU,NCT01797120-0079,309,TUMIDENT,Tumor Identification,TL1,TARGET,TARGET,LIVER,,CT SCAN,INVESTIGATOR,SCREENING,1,SCREENING,2022-07-11,1
NCT01797120,TU,NCT01797120-0079,310,TUMIDENT,Tumor Identification,TL2,TARGET,TARGET,BONE,,CT SCAN,INVESTIGATOR,SCREENING,1,SCREENING,2022-07-11,1
NCT01797120,TU,NCT01797120-0080,311,TIND,Target Indicator,,Y,Y,,,CT SCAN,INVESTIGATOR,SCREENING,1,SCREENING,2021-11-19,1
NCT01797120,TU,NCT01797120-0080,312,NTIND,Non-Target Indicator,,N,N,,,CT SCAN,INVESTIGATOR,SCREENING,1,SCREENING,2021-11-19,1
NCT01797120,TU,NCT01797120-0080,313,TUMIDENT,Tumor Identification,TL1,TARGET,TARGET,BONE,,CT SCAN,INVESTIGATOR,SCREENING,1,SCREENING,2021-11-19,1
NCT01797120,TU,NCT01797120-0080,314,TUMIDENT,Tumor Identification,TL2,TARGET,TARGET,LIVER,,CT SCAN,INVESTIGATOR,SCREENING,1,SCREENING,2021-11-19,1
NCT01797120,TU,NCT01797120-0081,315,TIND,Target Indicator,,Y,Y,,,CT SCAN,INVESTIGATOR,SCREENING,1,SCREENING,2022-09-16,1
NCT01797120,TU,NCT01797120-0081,316,NTIND,Non-Target Indicator,,N,N,,,CT SCAN,INVESTIGATOR,SCREENING,1,SCREENING,2022-09-16,1
NCT01797120,TU,NCT01797120-0081,317,TUMIDENT,Tumor Identification,TL1,TARGET,TARGET,SKIN,RIGHT,CT SCAN,INVESTIGATOR,SCREENING,1,SCREENING,2022-09-16,1
NCT01797120,TU,NCT01797120-0081,318,TUMIDENT,Tumor Identification,TL2,TARGET,TARGET,LIVER,,CT SCAN,INVESTIGATOR,SCREENING,1,SCREENING,2022-09-16,1
NCT01797120,TU,NCT01797120-0082,319,TIND,Target Indicator,,Y,Y,,,CT SCAN,INVESTIGATOR,SCREENING,1,SCREENING,2021-04-02,1
NCT01797120,TU,NCT01797120-0082,320,NTIND,Non-Target Indicator,,N,N,,,CT SCAN,INVESTIGATOR,SCREENING,1,SCREENING,2021-04-02,1
NCT01797120,TU,NCT01797120-0082,321,TUMIDENT,Tumor Identification,TL1,TARGET,TARGET,BONE,,CT SCAN,INVESTIGATOR,SCREENING,1,SCREENING,2021-04-02,1
NCT01797120,TU,NCT01797120-0082,322,TUMIDENT,Tumor Identification,TL2,TARGET,TARGET,LUNG,RIGHT,CT SCAN,INVESTIGATOR,SCREENING,1,SCREENING,2021-04-02,1
NCT01797120,TU,NCT01797120-0083,323,TIND,Target Indicator,,Y,Y,,,CT SCAN,INVESTIGATOR,SCREENING,1,SCREENING,2021-12-08,1
NCT01797120,TU,NCT01797120-0083,324,NTIND,Non-Target Indicator,,N,N,,,CT SCAN,INVESTIGATOR,SCREENING,1,SCREENING,2021-12-08,1
NCT01797120,TU,NCT01797120-0083,325,TUMIDENT,Tumor Identification,TL1,TARGET,TARGET,LYMPH NODE,LEFT,CT SCAN,INVESTIGATOR,SCREENING,1,SCREENING,2021-12-08,1
NCT01797120,TU,NCT01797120-0083,326,TUMIDENT,Tumor Identification,TL2,TARGET,TARGET,LYMPH NODE,RIGHT,CT SCAN,INVESTIGATOR,SCREENING,1,SCREENING,2021-12-08,1
NCT01797120,TU,NCT01797120-0084,327,TIND,Target Indicator,,Y,Y,,,CT SCAN,INVESTIGATOR,SCREENING,1,SCREENING,2022-02-28,1
NCT01797120,TU,NCT01797120-0084,328,NTIND,Non-Target Indicator,,N,N,,,CT SCAN,INVESTIGATOR,SCREENING,1,SCREENING,2022-02-28,1
NCT01797120,TU,NCT01797120-0084,329,TUMIDENT,Tumor Identification,TL1,TARGET,TARGET,BONE,,CT SCAN,INVESTIGATOR,SCREENING,1,SCREENING,2022-02-28,1
NCT01797120,TU,NCT01797120-0085,330,TIND,Target Indicator,,Y,Y,,,CT SCAN,INVESTIGATOR,SCREENING,1,SCREENING,2022-07-06,1
NCT01797120,TU,NCT01797120-0085,331,NTIND,Non-Target Indicator,,N,N,,,CT SCAN,INVESTIGATOR,SCREENING,1,SCREENING,2022-07-06,1
NCT01797120,TU,NCT01797120-0085,332,TUMIDENT,Tumor Identification,TL1,TARGET,TARGET,SKIN,RIGHT,CT SCAN,INVESTIGATOR,SCREENING,1,SCREENING,2022-07-06,1
NCT01797120,TU,NCT01797120-0086,333,TIND,Target Indicator,,Y,Y,,,CT SCAN,INVESTIGATOR,SCREENING,1,SCREENING,2022-10-25,1
NCT01797120,TU,NCT01797120-0086,334,NTIND,Non-Target Indicator,,N,N,,,CT SCAN,INVESTIGATOR,SCREENING,1,SCREENING,2022-10-25,1
NCT01797120,TU,NCT01797120-0086,335,TUMIDENT,Tumor Identification,TL1,TARGET,TARGET,BONE,,CT SCAN,INVESTIGATOR,SCREENING,1,SCREENING,2022-10-25,1
NCT01797120,TU,NCT01797120-0086,336,TUMIDENT,Tumor Identification,TL2,TARGET,TARGET,LYMPH NODE,LEFT,CT SCAN,INVESTIGATOR,SCREENING,1,SCREENING,2022-10-25,1
NCT01797120,TU,NCT01797120-0086,337,TUMIDENT,Tumor Identification,TL3,TARGET,TARGET,LIVER,,CT SCAN,INVESTIGATOR,SCREENING,1,SCREENING,2022-10-25,1
NCT01797120,TU,NCT01797120-0087,338,TIND,Target Indicator,,Y,Y,,,CT SCAN,INVESTIGATOR,SCREENING,1,SCREENING,2022-02-19,1
NCT01797120,TU,NCT01797120-0087,339,NTIND,Non-Target Indicator,,N,N,,,CT SCAN,INVESTIGATOR,SCREENING,1,SCREENING,2022-02-19,1
NCT01797120,TU,NCT01797120-0087,340,TUMIDENT,Tumor Identification,TL1,TARGET,TARGET,LIVER,,CT SCAN,INVESTIGATOR,SCREENING,1,SCREENING,2022-02-19,1
NCT01797120,TU,NCT01797120-0087,341,TUMIDENT,Tumor Identification,TL2,TARGET,TARGET,SKIN,LEFT,CT SCAN,INVESTIGATOR,SCREENING,1,SCREENING,2022-02-19,1
NCT01797120,TU,NCT01797120-0087,342,TUMIDENT,Tumor Identification,TL3,TARGET,TARGET,SKIN,LEFT,CT SCAN,INVESTIGATOR,SCREENING,1,SCREENING,2022-02-19,1
NCT01797120,TU,NCT01797120-0088,343,TIND,Target Indicator,,Y,Y,,,CT SCAN,INVESTIGATOR,SCREENING,1,SCREENING,2022-10-20,1
NCT01797120,TU,NCT01797120-0088,344,NTIND,Non-Target Indicator,,N,N,,,CT SCAN,INVESTIGATOR,SCREENING,1,SCREENING,2022-10-20,1
NCT01797120,TU,NCT01797120-0088,345,TUMIDENT,Tumor Identification,TL1,TARGET,TARGET,BONE,,CT SCAN,INVESTIGATOR,SCREENING,1,SCREENING,2022-10-20,1
NCT01797120,TU,NCT01797120-0088,346,TUMIDENT,Tumor Identification,TL2,TARGET,TARGET,LIVER,,CT SCAN,INVESTIGATOR,SCREENING,1,SCREENING,2022-10-20,1
NCT01797120,TU,NCT01797120-0088,347,TUMIDENT,Tumor Identification,TL3,TARGET,TARGET,LUNG,LEFT,CT SCAN,INVESTIGATOR,SCREENING,1,SCREENING,2022-10-20,1
NCT01797120,TU,NCT01797120-0089,348,TIND,Target Indicator,,Y,Y,,,CT SCAN,INVESTIGATOR,SCREENING,1,SCREENING,2022-12-12,1
NCT01797120,TU,NCT01797120-0089,349,NTIND,Non-Target Indicator,,N,N,,,CT SCAN,INVESTIGATOR,SCREENING,1,SCREENING,2022-12-12,1
NCT01797120,TU,NCT01797120-0089,350,TUMIDENT,Tumor Identification,TL1,TARGET,TARGET,LIVER,,CT SCAN,INVESTIGATOR,SCREENING,1,SCREENING,2022-12-12,1
NCT01797120,TU,NCT01797120-0090,351,TIND,Target Indicator,,Y,Y,,,CT SCAN,INVESTIGATOR,SCREENING,1,SCREENING,2021-10-02,1
NCT01797120,TU,NCT01797120-0090,352,NTIND,Non-Target Indicator,,N,N,,,CT SCAN,INVESTIGATOR,SCREENING,1,SCREENING,2021-10-02,1
NCT01797120,TU,NCT01797120-0090,353,TUMIDENT,Tumor Identification,TL1,TARGET,TARGET,LIVER,,CT SCAN,INVESTIGATOR,SCREENING,1,SCREENING,2021-10-02,1
NCT01797120,TU,NCT01797120-0090,354,TUMIDENT,Tumor Identification,TL2,TARGET,TARGET,LIVER,,CT SCAN,INVESTIGATOR,SCREENING,1,SCREENING,2021-10-02,1
NCT01797120,TU,NCT01797120-0091,355,TIND,Target Indicator,,Y,Y,,,CT SCAN,INVESTIGATOR,SCREENING,1,SCREENING,2021-02-13,1
NCT01797120,TU,NCT01797120-0091,356,NTIND,Non-Target Indicator,,N,N,,,CT SCAN,INVESTIGATOR,SCREENING,1,SCREENING,2021-02-13,1
NCT01797120,TU,NCT01797120-0091,357,TUMIDENT,Tumor Identification,TL1,TARGET,TARGET,LUNG,BILATERAL,CT SCAN,INVESTIGATOR,SCREENING,1,SCREENING,2021-02-13,1
NCT01797120,TU,NCT01797120-0091,358,TUMIDENT,Tumor Identification,TL2,TARGET,TARGET,PLEURA,LEFT,CT SCAN,INVESTIGATOR,SCREENING,1,SCREENING,2021-02-13,1
NCT01797120,TU,NCT01797120-0092,359,TIND,Target Indicator,,Y,Y,,,CT SCAN,INVESTIGATOR,SCREENING,1,SCREENING,2021-03-25,1
NCT01797120,TU,NCT01797120-0092,360,NTIND,Non-Target Indicator,,N,N,,,CT SCAN,INVESTIGATOR,SCREENING,1,SCREENING,2021-03-25,1
NCT01797120,TU,NCT01797120-0092,361,TUMIDENT,Tumor Identification,TL1,TARGET,TARGET,LIVER,,CT SCAN,INVESTIGATOR,SCREENING,1,SCREENING,2021-03-25,1
NCT01797120,TU,NCT01797120-0092,362,TUMIDENT,Tumor Identification,TL2,TARGET,TARGET,LIVER,,CT SCAN,INVESTIGATOR,SCREENING,1,SCREENING,2021-03-25,1
NCT01797120,TU,NCT01797120-0093,363,TIND,Target Indicator,,Y,Y,,,CT SCAN,INVESTIGATOR,SCREENING,1,SCREENING,2022-03-10,1
NCT01797120,TU,NCT01797120-0093,364,NTIND,Non-Target Indicator,,N,N,,,CT SCAN,INVESTIGATOR,SCREENING,1,SCREENING,2022-03-10,1
NCT01797120,TU,NCT01797120-0093,365,TUMIDENT,Tumor Identification,TL1,TARGET,TARGET,BONE,,CT SCAN,INVESTIGATOR,SCREENING,1,SCREENING,2022-03-10,1
NCT01797120,TU,NCT01797120-0093,366,TUMIDENT,Tumor Identification,TL2,TARGET,TARGET,LIVER,,CT SCAN,INVESTIGATOR,SCREENING,1,SCREENING,2022-03-10,1
NCT01797120,TU,NCT01797120-0094,367,TIND,Target Indicator,,Y,Y,,,CT SCAN,INVESTIGATOR,SCREENING,1,SCREENING,2021-04-04,1
NCT01797120,TU,NCT01797120-0094,368,NTIND,Non-Target Indicator,,N,N,,,CT SCAN,INVESTIGATOR,SCREENING,1,SCREENING,2021-04-04,1
NCT01797120,TU,NCT01797120-0094,369,TUMIDENT,Tumor Identification,TL1,TARGET,TARGET,LIVER,,CT SCAN,INVESTIGATOR,SCREENING,1,SCREENING,2021-04-04,1
NCT01797120,TU,NCT01797120-0095,370,TIND,Target Indicator,,Y,Y,,,CT SCAN,INVESTIGATOR,SCREENING,1,SCREENING,2021-06-24,1
NCT01797120,TU,NCT01797120-0095,371,NTIND,Non-Target Indicator,,N,N,,,CT SCAN,INVESTIGATOR,SCREENING,1,SCREENING,2021-06-24,1
NCT01797120,TU,NCT01797120-0095,372,TUMIDENT,Tumor Identification,TL1,TARGET,TARGET,PLEURA,LEFT,CT SCAN,INVESTIGATOR,SCREENING,1,SCREENING,2021-06-24,1
NCT01797120,TU,NCT01797120-0095,373,TUMIDENT,Tumor Identification,TL2,TARGET,TARGET,LIVER,,CT SCAN,INVESTIGATOR,SCREENING,1,SCREENING,2021-06-24,1
NCT01797120,TU,NCT01797120-0096,374,TIND,Target Indicator,,Y,Y,,,CT SCAN,INVESTIGATOR,SCREENING,1,SCREENING,2022-02-10,1
NCT01797120,TU,NCT01797120-0096,375,NTIND,Non-Target Indicator,,N,N,,,CT SCAN,INVESTIGATOR,SCREENING,1,SCREENING,2022-02-10,1
NCT01797120,TU,NCT01797120-0096,376,TUMIDENT,Tumor Identification,TL1,TARGET,TARGET,LYMPH NODE,RIGHT,CT SCAN,INVESTIGATOR,SCREENING,1,SCREENING,2022-02-10,1
NCT01797120,TU,NCT01797120-0096,377,TUMIDENT,Tumor Identification,TL2,TARGET,TARGET,BREAST,RIGHT,CT SCAN,INVESTIGATOR,SCREENING,1,SCREENING,2022-02-10,1
NCT01797120,TU,NCT01797120-0097,378,TIND,Target Indicator,,Y,Y,,,CT SCAN,INVESTIGATOR,SCREENING,1,SCREENING,2021-07-21,1
NCT01797120,TU,NCT01797120-0097,379,NTIND,Non-Target Indicator,,N,N,,,CT SCAN,INVESTIGATOR,SCREENING,1,SCREENING,2021-07-21,1
NCT01797120,TU,NCT01797120-0097,380,TUMIDENT,Tumor Identification,TL1,TARGET,TARGET,LYMPH NODE,RIGHT,CT SCAN,INVESTIGATOR,SCREENING,1,SCREENING,2021-07-21,1
NCT01797120,TU,NCT01797120-0098,381,TIND,Target Indicator,,Y,Y,,,CT SCAN,INVESTIGATOR,SCREENING,1,SCREENING,2022-05-14,1
NCT01797120,TU,NCT01797120-0098,382,NTIND,Non-Target Indicator,,N,N,,,CT SCAN,INVESTIGATOR,SCREENING,1,SCREENING,2022-05-14,1
NCT01797120,TU,NCT01797120-0098,383,TUMIDENT,Tumor Identification,TL1,TARGET,TARGET,BONE,,CT SCAN,INVESTIGATOR,SCREENING,1,SCREENING,2022-05-14,1
NCT01797120,TU,NCT01797120-0098,384,TUMIDENT,Tumor Identification,TL2,TARGET,TARGET,PLEURA,LEFT,CT SCAN,INVESTIGATOR,SCREENING,1,SCREENING,2022-05-14,1
NCT01797120,TU,NCT01797120-0098,385,TUMIDENT,Tumor Identification,TL3,TARGET,TARGET,LIVER,,CT SCAN,INVESTIGATOR,SCREENING,1,SCREENING,2022-05-14,1
NCT01797120,TU,NCT01797120-0099,386,TIND,Target Indicator,,Y,Y,,,CT SCAN,INVESTIGATOR,SCREENING,1,SCREENING,2022-04-26,1
NCT01797120,TU,NCT01797120-0099,387,NTIND,Non-Target Indicator,,N,N,,,CT SCAN,INVESTIGATOR,SCREENING,1,SCREENING,2022-04-26,1
NCT01797120,TU,NCT01797120-0099,388,TUMIDENT,Tumor Identification,TL1,TARGET,TARGET,SKIN,RIGHT,CT SCAN,INVESTIGATOR,SCREENING,1,SCREENING,2022-04-26,1
NCT01797120,TU,NCT01797120-0100,389,TIND,Target Indicator,,Y,Y,,,CT SCAN,INVESTIGATOR,SCREENING,1,SCREENING,2021-11-26,1
NCT01797120,TU,NCT01797120-0100,390,NTIND,Non-Target Indicator,,N,N,,,CT SCAN,INVESTIGATOR,SCREENING,1,SCREENING,2021-11-26,1
NCT01797120,TU,NCT01797120-0100,391,TUMIDENT,Tumor Identification,TL1,TARGET,TARGET,BONE,,CT SCAN,INVESTIGATOR,SCREENING,1,SCREENING,2021-11-26,1
NCT01797120,TU,NCT01797120-0100,392,TUMIDENT,Tumor Identification,TL2,TARGET,TARGET,BREAST,LEFT,CT SCAN,INVESTIGATOR,SCREENING,1,SCREENING,2021-11-26,1
NCT01797120,TU,NCT01797120-0100,393,TUMIDENT,Tumor Identification,TL3,TARGET,TARGET,LIVER,,CT SCAN,INVESTIGATOR,SCREENING,1,SCREENING,2021-11-26,1
NCT01797120,TU,NCT01797120-0101,394,TIND,Target Indicator,,Y,Y,,,CT SCAN,INVESTIGATOR,SCREENING,1,SCREENING,2022-06-25,1
NCT01797120,TU,NCT01797120-0101,395,NTIND,Non-Target Indicator,,N,N,,,CT SCAN,INVESTIGATOR,SCREENING,1,SCREENING,2022-06-25,1
NCT01797120,TU,NCT01797120-0101,396,TUMIDENT,Tumor Identification,TL1,TARGET,TARGET,BREAST,LEFT,CT SCAN,INVESTIGATOR,SCREENING,1,SCREENING,2022-06-25,1
NCT01797120,TU,NCT01797120-0101,397,TUMIDENT,Tumor Identification,TL2,TARGET,TARGET,SKIN,LEFT,CT SCAN,INVESTIGATOR,SCREENING,1,SCREENING,2022-06-25,1
NCT01797120,TU,NCT01797120-0102,398,TIND,Target Indicator,,Y,Y,,,CT SCAN,INVESTIGATOR,SCREENING,1,SCREENING,2021-07-29,1
NCT01797120,TU,NCT01797120-0102,399,NTIND,Non-Target Indicator,,N,N,,,CT SCAN,INVESTIGATOR,SCREENING,1,SCREENING,2021-07-29,1
NCT01797120,TU,NCT01797120-0102,400,TUMIDENT,Tumor Identification,TL1,TARGET,TARGET,LIVER,,CT SCAN,INVESTIGATOR,SCREENING,1,SCREENING,2021-07-29,1
NCT01797120,TU,NCT01797120-0103,401,TIND,Target Indicator,,Y,Y,,,CT SCAN,INVESTIGATOR,SCREENING,1,SCREENING,2022-09-10,1
NCT01797120,TU,NCT01797120-0103,402,NTIND,Non-Target Indicator,,N,N,,,CT SCAN,INVESTIGATOR,SCREENING,1,SCREENING,2022-09-10,1
NCT01797120,TU,NCT01797120-0103,403,TUMIDENT,Tumor Identification,TL1,TARGET,TARGET,PLEURA,RIGHT,CT SCAN,INVESTIGATOR,SCREENING,1,SCREENING,2022-09-10,1
NCT01797120,TU,NCT01797120-0103,404,TUMIDENT,Tumor Identification,TL2,TARGET,TARGET,LYMPH NODE,LEFT,CT SCAN,INVESTIGATOR,SCREENING,1,SCREENING,2022-09-10,1
NCT01797120,TU,NCT01797120-0104,405,TIND,Target Indicator,,Y,Y,,,CT SCAN,INVESTIGATOR,SCREENING,1,SCREENING,2022-07-30,1
NCT01797120,TU,NCT01797120-0104,406,NTIND,Non-Target Indicator,,N,N,,,CT SCAN,INVESTIGATOR,SCREENING,1,SCREENING,2022-07-30,1
NCT01797120,TU,NCT01797120-0104,407,TUMIDENT,Tumor Identification,TL1,TARGET,TARGET,BREAST,LEFT,CT SCAN,INVESTIGATOR,SCREENING,1,SCREENING,2022-07-30,1
NCT01797120,TU,NCT01797120-0104,408,TUMIDENT,Tumor Identification,TL2,TARGET,TARGET,LUNG,RIGHT,CT SCAN,INVESTIGATOR,SCREENING,1,SCREENING,2022-07-30,1
NCT01797120,TU,NCT01797120-0105,409,TIND,Target Indicator,,Y,Y,,,CT SCAN,INVESTIGATOR,SCREENING,1,SCREENING,2021-01-17,1
NCT01797120,TU,NCT01797120-0105,410,NTIND,Non-Target Indicator,,N,N,,,CT SCAN,INVESTIGATOR,SCREENING,1,SCREENING,2021-01-17,1
NCT01797120,TU,NCT01797120-0105,411,TUMIDENT,Tumor Identification,TL1,TARGET,TARGET,LUNG,LEFT,CT SCAN,INVESTIGATOR,SCREENING,1,SCREENING,2021-01-17,1
NCT01797120,TU,NCT01797120-0105,412,TUMIDENT,Tumor Identification,TL2,TARGET,TARGET,BREAST,RIGHT,CT SCAN,INVESTIGATOR,SCREENING,1,SCREENING,2021-01-17,1
NCT01797120,TU,NCT01797120-0105,413,TUMIDENT,Tumor Identification,TL3,TARGET,TARGET,PLEURA,LEFT,CT SCAN,INVESTIGATOR,SCREENING,1,SCREENING,2021-01-17,1
NCT01797120,TU,NCT01797120-0106,414,TIND,Target Indicator,,Y,Y,,,CT SCAN,INVESTIGATOR,SCREENING,1,SCREENING,2021-04-17,1
NCT01797120,TU,NCT01797120-0106,415,NTIND,Non-Target Indicator,,N,N,,,CT SCAN,INVESTIGATOR,SCREENING,1,SCREENING,2021-04-17,1
NCT01797120,TU,NCT01797120-0106,416,TUMIDENT,Tumor Identification,TL1,TARGET,TARGET,SKIN,RIGHT,CT SCAN,INVESTIGATOR,SCREENING,1,SCREENING,2021-04-17,1
NCT01797120,TU,NCT01797120-0107,417,TIND,Target Indicator,,Y,Y,,,CT SCAN,INVESTIGATOR,SCREENING,1,SCREENING,2021-06-14,1
NCT01797120,TU,NCT01797120-0107,418,NTIND,Non-Target Indicator,,N,N,,,CT SCAN,INVESTIGATOR,SCREENING,1,SCREENING,2021-06-14,1
NCT01797120,TU,NCT01797120-0107,419,TUMIDENT,Tumor Identification,TL1,TARGET,TARGET,BONE,,CT SCAN,INVESTIGATOR,SCREENING,1,SCREENING,2021-06-14,1
NCT01797120,TU,NCT01797120-0108,420,TIND,Target Indicator,,Y,Y,,,CT SCAN,INVESTIGATOR,SCREENING,1,SCREENING,2022-08-30,1
NCT01797120,TU,NCT01797120-0108,421,NTIND,Non-Target Indicator,,N,N,,,CT SCAN,INVESTIGATOR,SCREENING,1,SCREENING,2022-08-30,1
NCT01797120,TU,NCT01797120-0108,422,TUMIDENT,Tumor Identification,TL1,TARGET,TARGET,LIVER,,CT SCAN,INVESTIGATOR,SCREENING,1,SCREENING,2022-08-30,1
NCT01797120,TU,NCT01797120-0109,423,TIND,Target Indicator,,Y,Y,,,CT SCAN,INVESTIGATOR,SCREENING,1,SCREENING,2022-06-21,1
NCT01797120,TU,NCT01797120-0109,424,NTIND,Non-Target Indicator,,N,N,,,CT SCAN,INVESTIGATOR,SCREENING,1,SCREENING,2022-06-21,1
NCT01797120,TU,NCT01797120-0109,425,TUMIDENT,Tumor Identification,TL1,TARGET,TARGET,LUNG,LEFT,CT SCAN,INVESTIGATOR,SCREENING,1,SCREENING,2022-06-21,1
NCT01797120,TU,NCT01797120-0109,426,TUMIDENT,Tumor Identification,TL2,TARGET,TARGET,BONE,,CT SCAN,INVESTIGATOR,SCREENING,1,SCREENING,2022-06-21,1
NCT01797120,TU,NCT01797120-0110,427,TIND,Target Indicator,,Y,Y,,,CT SCAN,INVESTIGATOR,SCREENING,1,SCREENING,2022-09-21,1
NCT01797120,TU,NCT01797120-0110,428,NTIND,Non-Target Indicator,,N,N,,,CT SCAN,INVESTIGATOR,SCREENING,1,SCREENING,2022-09-21,1
NCT01797120,TU,NCT01797120-0110,429,TUMIDENT,Tumor Identification,TL1,TARGET,TARGET,LYMPH NODE,LEFT,CT SCAN,INVESTIGATOR,SCREENING,1,SCREENING,2022-09-21,1
NCT01797120,TU,NCT01797120-0111,430,TIND,Target Indicator,,Y,Y,,,CT SCAN,INVESTIGATOR,SCREENING,1,SCREENING,2021-07-11,1
NCT01797120,TU,NCT01797120-0111,431,NTIND,Non-Target Indicator,,N,N,,,CT SCAN,INVESTIGATOR,SCREENING,1,SCREENING,2021-07-11,1
NCT01797120,TU,NCT01797120-0111,432,TUMIDENT,Tumor Identification,TL1,TARGET,TARGET,BONE,,CT SCAN,INVESTIGATOR,SCREENING,1,SCREENING,2021-07-11,1
NCT01797120,TU,NCT01797120-0111,433,TUMIDENT,Tumor Identification,TL2,TARGET,TARGET,SKIN,RIGHT,CT SCAN,INVESTIGATOR,SCREENING,1,SCREENING,2021-07-11,1
NCT01797120,TU,NCT01797120-0111,434,TUMIDENT,Tumor Identification,TL3,TARGET,TARGET,PLEURA,RIGHT,CT SCAN,INVESTIGATOR,SCREENING,1,SCREENING,2021-07-11,1
NCT01797120,TU,NCT01797120-0112,435,TIND,Target Indicator,,Y,Y,,,CT SCAN,INVESTIGATOR,SCREENING,1,SCREENING,2021-07-15,1
NCT01797120,TU,NCT01797120-0112,436,NTIND,Non-Target Indicator,,N,N,,,CT SCAN,INVESTIGATOR,SCREENING,1,SCREENING,2021-07-15,1
NCT01797120,TU,NCT01797120-0112,437,TUMIDENT,Tumor Identification,TL1,TARGET,TARGET,LIVER,,CT SCAN,INVESTIGATOR,SCREENING,1,SCREENING,2021-07-15,1
NCT01797120,TU,NCT01797120-0112,438,TUMIDENT,Tumor Identification,TL2,TARGET,TARGET,LIVER,,CT SCAN,INVESTIGATOR,SCREENING,1,SCREENING,2021-07-15,1
NCT01797120,TU,NCT01797120-0113,439,TIND,Target Indicator,,Y,Y,,,CT SCAN,INVESTIGATOR,SCREENING,1,SCREENING,2021-11-04,1
NCT01797120,TU,NCT01797120-0113,440,NTIND,Non-Target Indicator,,N,N,,,CT SCAN,INVESTIGATOR,SCREENING,1,SCREENING,2021-11-04,1
NCT01797120,TU,NCT01797120-0113,441,TUMIDENT,Tumor Identification,TL1,TARGET,TARGET,BREAST,RIGHT,CT SCAN,INVESTIGATOR,SCREENING,1,SCREENING,2021-11-04,1
NCT01797120,TU,NCT01797120-0113,442,TUMIDENT,Tumor Identification,TL2,TARGET,TARGET,LYMPH NODE,LEFT,CT SCAN,INVESTIGATOR,SCREENING,1,SCREENING,2021-11-04,1
NCT01797120,TU,NCT01797120-0113,443,TUMIDENT,Tumor Identification,TL3,TARGET,TARGET,LUNG,RIGHT,CT SCAN,INVESTIGATOR,SCREENING,1,SCREENING,2021-11-04,1
NCT01797120,TU,NCT01797120-0114,444,TIND,Target Indicator,,Y,Y,,,CT SCAN,INVESTIGATOR,SCREENING,1,SCREENING,2021-05-17,1
NCT01797120,TU,NCT01797120-0114,445,NTIND,Non-Target Indicator,,N,N,,,CT SCAN,INVESTIGATOR,SCREENING,1,SCREENING,2021-05-17,1
NCT01797120,TU,NCT01797120-0114,446,TUMIDENT,Tumor Identification,TL1,TARGET,TARGET,LIVER,,CT SCAN,INVESTIGATOR,SCREENING,1,SCREENING,2021-05-17,1
NCT01797120,TU,NCT01797120-0114,447,TUMIDENT,Tumor Identification,TL2,TARGET,TARGET,LIVER,,CT SCAN,INVESTIGATOR,SCREENING,1,SCREENING,2021-05-17,1
NCT01797120,TU,NCT01797120-0115,448,TIND,Target Indicator,,Y,Y,,,CT SCAN,INVESTIGATOR,SCREENING,1,SCREENING,2021-04-04,1
NCT01797120,TU,NCT01797120-0115,449,NTIND,Non-Target Indicator,,N,N,,,CT SCAN,INVESTIGATOR,SCREENING,1,SCREENING,2021-04-04,1
NCT01797120,TU,NCT01797120-0115,450,TUMIDENT,Tumor Identification,TL1,TARGET,TARGET,SKIN,RIGHT,CT SCAN,INVESTIGATOR,SCREENING,1,SCREENING,2021-04-04,1
NCT01797120,TU,NCT01797120-0115,451,TUMIDENT,Tumor Identification,TL2,TARGET,TARGET,PLEURA,RIGHT,CT SCAN,INVESTIGATOR,SCREENING,1,SCREENING,2021-04-04,1
NCT01797120,TU,NCT01797120-0116,452,TIND,Target Indicator,,Y,Y,,,CT SCAN,INVESTIGATOR,SCREENING,1,SCREENING,2021-03-29,1
NCT01797120,TU,NCT01797120-0116,453,NTIND,Non-Target Indicator,,N,N,,,CT SCAN,INVESTIGATOR,SCREENING,1,SCREENING,2021-03-29,1
NCT01797120,TU,NCT01797120-0116,454,TUMIDENT,Tumor Identification,TL1,TARGET,TARGET,LUNG,BILATERAL,CT SCAN,INVESTIGATOR,SCREENING,1,SCREENING,2021-03-29,1
NCT01797120,TU,NCT01797120-0116,455,TUMIDENT,Tumor Identification,TL2,TARGET,TARGET,PLEURA,LEFT,CT SCAN,INVESTIGATOR,SCREENING,1,SCREENING,2021-03-29,1
NCT01797120,TU,NCT01797120-0117,456,TIND,Target Indicator,,Y,Y,,,CT SCAN,INVESTIGATOR,SCREENING,1,SCREENING,2021-06-10,1
NCT01797120,TU,NCT01797120-0117,457,NTIND,Non-Target Indicator,,N,N,,,CT SCAN,INVESTIGATOR,SCREENING,1,SCREENING,2021-06-10,1
NCT01797120,TU,NCT01797120-0117,458,TUMIDENT,Tumor Identification,TL1,TARGET,TARGET,LIVER,,CT SCAN,INVESTIGATOR,SCREENING,1,SCREENING,2021-06-10,1
NCT01797120,TU,NCT01797120-0117,459,TUMIDENT,Tumor Identification,TL2,TARGET,TARGET,SKIN,RIGHT,CT SCAN,INVESTIGATOR,SCREENING,1,SCREENING,2021-06-10,1
NCT01797120,TU,NCT01797120-0118,460,TIND,Target Indicator,,Y,Y,,,CT SCAN,INVESTIGATOR,SCREENING,1,SCREENING,2021-05-28,1
NCT01797120,TU,NCT01797120-0118,461,NTIND,Non-Target Indicator,,N,N,,,CT SCAN,INVESTIGATOR,SCREENING,1,SCREENING,2021-05-28,1
NCT01797120,TU,NCT01797120-0118,462,TUMIDENT,Tumor Identification,TL1,TARGET,TARGET,LUNG,RIGHT,CT SCAN,INVESTIGATOR,SCREENING,1,SCREENING,2021-05-28,1
NCT01797120,TU,NCT01797120-0118,463,TUMIDENT,Tumor Identification,TL2,TARGET,TARGET,SKIN,LEFT,CT SCAN,INVESTIGATOR,SCREENING,1,SCREENING,2021-05-28,1
NCT01797120,TU,NCT01797120-0118,464,TUMIDENT,Tumor Identification,TL3,TARGET,TARGET,PLEURA,RIGHT,CT SCAN,INVESTIGATOR,SCREENING,1,SCREENING,2021-05-28,1
NCT01797120,TU,NCT01797120-0119,465,TIND,Target Indicator,,Y,Y,,,CT SCAN,INVESTIGATOR,SCREENING,1,SCREENING,2022-08-08,1
NCT01797120,TU,NCT01797120-0119,466,NTIND,Non-Target Indicator,,N,N,,,CT SCAN,INVESTIGATOR,SCREENING,1,SCREENING,2022-08-08,1
NCT01797120,TU,NCT01797120-0119,467,TUMIDENT,Tumor Identification,TL1,TARGET,TARGET,SKIN,RIGHT,CT SCAN,INVESTIGATOR,SCREENING,1,SCREENING,2022-08-08,1
NCT01797120,TU,NCT01797120-0119,468,TUMIDENT,Tumor Identification,TL2,TARGET,TARGET,BREAST,RIGHT,CT SCAN,INVESTIGATOR,SCREENING,1,SCREENING,2022-08-08,1
NCT01797120,TU,NCT01797120-0120,469,TIND,Target Indicator,,Y,Y,,,CT SCAN,INVESTIGATOR,SCREENING,1,SCREENING,2022-04-01,1
NCT01797120,TU,NCT01797120-0120,470,NTIND,Non-Target Indicator,,N,N,,,CT SCAN,INVESTIGATOR,SCREENING,1,SCREENING,2022-04-01,1
NCT01797120,TU,NCT01797120-0120,471,TUMIDENT,Tumor Identification,TL1,TARGET,TARGET,PLEURA,LEFT,CT SCAN,INVESTIGATOR,SCREENING,1,SCREENING,2022-04-01,1
NCT01797120,TU,NCT01797120-0120,472,TUMIDENT,Tumor Identification,TL2,TARGET,TARGET,SKIN,RIGHT,CT SCAN,INVESTIGATOR,SCREENING,1,SCREENING,2022-04-01,1
NCT01797120,TU,NCT01797120-0121,473,TIND,Target Indicator,,Y,Y,,,CT SCAN,INVESTIGATOR,SCREENING,1,SCREENING,2021-03-29,1
NCT01797120,TU,NCT01797120-0121,474,NTIND,Non-Target Indicator,,N,N,,,CT SCAN,INVESTIGATOR,SCREENING,1,SCREENING,2021-03-29,1
NCT01797120,TU,NCT01797120-0121,475,TUMIDENT,Tumor Identification,TL1,TARGET,TARGET,SKIN,RIGHT,CT SCAN,INVESTIGATOR,SCREENING,1,SCREENING,2021-03-29,1
NCT01797120,TU,NCT01797120-0121,476,TUMIDENT,Tumor Identification,TL2,TARGET,TARGET,BREAST,LEFT,CT SCAN,INVESTIGATOR,SCREENING,1,SCREENING,2021-03-29,1
NCT01797120,TU,NCT01797120-0122,477,TIND,Target Indicator,,Y,Y,,,CT SCAN,INVESTIGATOR,SCREENING,1,SCREENING,2021-01-14,1
NCT01797120,TU,NCT01797120-0122,478,NTIND,Non-Target Indicator,,N,N,,,CT SCAN,INVESTIGATOR,SCREENING,1,SCREENING,2021-01-14,1
NCT01797120,TU,NCT01797120-0122,479,TUMIDENT,Tumor Identification,TL1,TARGET,TARGET,SKIN,LEFT,CT SCAN,INVESTIGATOR,SCREENING,1,SCREENING,2021-01-14,1
NCT01797120,TU,NCT01797120-0123,480,TIND,Target Indicator,,Y,Y,,,CT SCAN,INVESTIGATOR,SCREENING,1,SCREENING,2021-11-11,1
NCT01797120,TU,NCT01797120-0123,481,NTIND,Non-Target Indicator,,N,N,,,CT SCAN,INVESTIGATOR,SCREENING,1,SCREENING,2021-11-11,1
NCT01797120,TU,NCT01797120-0123,482,TUMIDENT,Tumor Identification,TL1,TARGET,TARGET,SKIN,RIGHT,CT SCAN,INVESTIGATOR,SCREENING,1,SCREENING,2021-11-11,1
NCT01797120,TU,NCT01797120-0124,483,TIND,Target Indicator,,Y,Y,,,CT SCAN,INVESTIGATOR,SCREENING,1,SCREENING,2022-08-17,1
NCT01797120,TU,NCT01797120-0124,484,NTIND,Non-Target Indicator,,N,N,,,CT SCAN,INVESTIGATOR,SCREENING,1,SCREENING,2022-08-17,1
NCT01797120,TU,NCT01797120-0124,485,TUMIDENT,Tumor Identification,TL1,TARGET,TARGET,LIVER,,CT SCAN,INVESTIGATOR,SCREENING,1,SCREENING,2022-08-17,1
NCT01797120,TU,NCT01797120-0124,486,TUMIDENT,Tumor Identification,TL2,TARGET,TARGET,LIVER,,CT SCAN,INVESTIGATOR,SCREENING,1,SCREENING,2022-08-17,1
NCT01797120,TU,NCT01797120-0125,487,TIND,Target Indicator,,Y,Y,,,CT SCAN,INVESTIGATOR,SCREENING,1,SCREENING,2021-05-01,1
NCT01797120,TU,NCT01797120-0125,488,NTIND,Non-Target Indicator,,N,N,,,CT SCAN,INVESTIGATOR,SCREENING,1,SCREENING,2021-05-01,1
NCT01797120,TU,NCT01797120-0125,489,TUMIDENT,Tumor Identification,TL1,TARGET,TARGET,LUNG,BILATERAL,CT SCAN,INVESTIGATOR,SCREENING,1,SCREENING,2021-05-01,1
NCT01797120,TU,NCT01797120-0125,490,TUMIDENT,Tumor Identification,TL2,TARGET,TARGET,BONE,,CT SCAN,INVESTIGATOR,SCREENING,1,SCREENING,2021-05-01,1
NCT01797120,TU,NCT01797120-0126,491,TIND,Target Indicator,,Y,Y,,,CT SCAN,INVESTIGATOR,SCREENING,1,SCREENING,2022-12-17,1
NCT01797120,TU,NCT01797120-0126,492,NTIND,Non-Target Indicator,,N,N,,,CT SCAN,INVESTIGATOR,SCREENING,1,SCREENING,2022-12-17,1
NCT01797120,TU,NCT01797120-0126,493,TUMIDENT,Tumor Identification,TL1,TARGET,TARGET,LIVER,,CT SCAN,INVESTIGATOR,SCREENING,1,SCREENING,2022-12-17,1
NCT01797120,TU,NCT01797120-0127,494,TIND,Target Indicator,,Y,Y,,,CT SCAN,INVESTIGATOR,SCREENING,1,SCREENING,2021-10-09,1
NCT01797120,TU,NCT01797120-0127,495,NTIND,Non-Target Indicator,,N,N,,,CT SCAN,INVESTIGATOR,SCREENING,1,SCREENING,2021-10-09,1
NCT01797120,TU,NCT01797120-0127,496,TUMIDENT,Tumor Identification,TL1,TARGET,TARGET,LIVER,,CT SCAN,INVESTIGATOR,SCREENING,1,SCREENING,2021-10-09,1
NCT01797120,TU,NCT01797120-0127,497,TUMIDENT,Tumor Identification,TL2,TARGET,TARGET,PLEURA,RIGHT,CT SCAN,INVESTIGATOR,SCREENING,1,SCREENING,2021-10-09,1
NCT01797120,TU,NCT01797120-0128,498,TIND,Target Indicator,,Y,Y,,,CT SCAN,INVESTIGATOR,SCREENING,1,SCREENING,2022-03-03,1
NCT01797120,TU,NCT01797120-0128,499,NTIND,Non-Target Indicator,,N,N,,,CT SCAN,INVESTIGATOR,SCREENING,1,SCREENING,2022-03-03,1
NCT01797120,TU,NCT01797120-0128,500,TUMIDENT,Tumor Identification,TL1,TARGET,TARGET,LUNG,BILATERAL,CT SCAN,INVESTIGATOR,SCREENING,1,SCREENING,2022-03-03,1
NCT01797120,TU,NCT01797120-0128,501,TUMIDENT,Tumor Identification,TL2,TARGET,TARGET,LUNG,BILATERAL,CT SCAN,INVESTIGATOR,SCREENING,1,SCREENING,2022-03-03,1
NCT01797120,TU,NCT01797120-0129,502,TIND,Target Indicator,,Y,Y,,,CT SCAN,INVESTIGATOR,SCREENING,1,SCREENING,2022-04-16,1
NCT01797120,TU,NCT01797120-0129,503,NTIND,Non-Target Indicator,,N,N,,,CT SCAN,INVESTIGATOR,SCREENING,1,SCREENING,2022-04-16,1
NCT01797120,TU,NCT01797120-0129,504,TUMIDENT,Tumor Identification,TL1,TARGET,TARGET,PLEURA,RIGHT,CT SCAN,INVESTIGATOR,SCREENING,1,SCREENING,2022-04-16,1
NCT01797120,TU,NCT01797120-0129,505,TUMIDENT,Tumor Identification,TL2,TARGET,TARGET,PLEURA,RIGHT,CT SCAN,INVESTIGATOR,SCREENING,1,SCREENING,2022-04-16,1
NCT01797120,TU,NCT01797120-0130,506,TIND,Target Indicator,,Y,Y,,,CT SCAN,INVESTIGATOR,SCREENING,1,SCREENING,2021-10-12,1
NCT01797120,TU,NCT01797120-0130,507,NTIND,Non-Target Indicator,,N,N,,,CT SCAN,INVESTIGATOR,SCREENING,1,SCREENING,2021-10-12,1
NCT01797120,TU,NCT01797120-0130,508,TUMIDENT,Tumor Identification,TL1,TARGET,TARGET,BONE,,CT SCAN,INVESTIGATOR,SCREENING,1,SCREENING,2021-10-12,1
NCT01797120,TU,NCT01797120-0130,509,TUMIDENT,Tumor Identification,TL2,TARGET,TARGET,LUNG,LEFT,CT SCAN,INVESTIGATOR,SCREENING,1,SCREENING,2021-10-12,1
NCT01797120,TU,NCT01797120-0131,510,TIND,Target Indicator,,Y,Y,,,CT SCAN,INVESTIGATOR,SCREENING,1,SCREENING,2021-10-04,1
NCT01797120,TU,NCT01797120-0131,511,NTIND,Non-Target Indicator,,N,N,,,CT SCAN,INVESTIGATOR,SCREENING,1,SCREENING,2021-10-04,1
NCT01797120,TU,NCT01797120-0131,512,TUMIDENT,Tumor Identification,TL1,TARGET,TARGET,BONE,,CT SCAN,INVESTIGATOR,SCREENING,1,SCREENING,2021-10-04,1
NCT01797120,TU,NCT01797120-0131,513,TUMIDENT,Tumor Identification,TL2,TARGET,TARGET,LIVER,,CT SCAN,INVESTIGATOR,SCREENING,1,SCREENING,2021-10-04,1
NCT01797120,TU,NCT01797120-0132,514,TIND,Target Indicator,,Y,Y,,,CT SCAN,INVESTIGATOR,SCREENING,1,SCREENING,2021-11-21,1
NCT01797120,TU,NCT01797120-0132,515,NTIND,Non-Target Indicator,,N,N,,,CT SCAN,INVESTIGATOR,SCREENING,1,SCREENING,2021-11-21,1
NCT01797120,TU,NCT01797120-0132,516,TUMIDENT,Tumor Identification,TL1,TARGET,TARGET,LIVER,,CT SCAN,INVESTIGATOR,SCREENING,1,SCREENING,2021-11-21,1
NCT01797120,TU,NCT01797120-0132,517,TUMIDENT,Tumor Identification,TL2,TARGET,TARGET,BONE,,CT SCAN,INVESTIGATOR,SCREENING,1,SCREENING,2021-11-21,1
NCT01797120,TU,NCT01797120-0132,518,TUMIDENT,Tumor Identification,TL3,TARGET,TARGET,SKIN,LEFT,CT SCAN,INVESTIGATOR,SCREENING,1,SCREENING,2021-11-21,1
NCT01797120,TU,NCT01797120-0133,519,TIND,Target Indicator,,Y,Y,,,CT SCAN,INVESTIGATOR,SCREENING,1,SCREENING,2022-06-19,1
NCT01797120,TU,NCT01797120-0133,520,NTIND,Non-Target Indicator,,N,N,,,CT SCAN,INVESTIGATOR,SCREENING,1,SCREENING,2022-06-19,1
NCT01797120,TU,NCT01797120-0133,521,TUMIDENT,Tumor Identification,TL1,TARGET,TARGET,LIVER,,CT SCAN,INVESTIGATOR,SCREENING,1,SCREENING,2022-06-19,1
NCT01797120,TU,NCT01797120-0134,522,TIND,Target Indicator,,Y,Y,,,CT SCAN,INVESTIGATOR,SCREENING,1,SCREENING,2021-08-16,1
NCT01797120,TU,NCT01797120-0134,523,NTIND,Non-Target Indicator,,N,N,,,CT SCAN,INVESTIGATOR,SCREENING,1,SCREENING,2021-08-16,1
NCT01797120,TU,NCT01797120-0134,524,TUMIDENT,Tumor Identification,TL1,TARGET,TARGET,SKIN,LEFT,CT SCAN,INVESTIGATOR,SCREENING,1,SCREENING,2021-08-16,1
NCT01797120,TU,NCT01797120-0134,525,TUMIDENT,Tumor Identification,TL2,TARGET,TARGET,SKIN,RIGHT,CT SCAN,INVESTIGATOR,SCREENING,1,SCREENING,2021-08-16,1
NCT01797120,TU,NCT01797120-0135,526,TIND,Target Indicator,,Y,Y,,,CT SCAN,INVESTIGATOR,SCREENING,1,SCREENING,2022-08-19,1
NCT01797120,TU,NCT01797120-0135,527,NTIND,Non-Target Indicator,,N,N,,,CT SCAN,INVESTIGATOR,SCREENING,1,SCREENING,2022-08-19,1
NCT01797120,TU,NCT01797120-0135,528,TUMIDENT,Tumor Identification,TL1,TARGET,TARGET,PLEURA,LEFT,CT SCAN,INVESTIGATOR,SCREENING,1,SCREENING,2022-08-19,1
NCT01797120,TU,NCT01797120-0135,529,TUMIDENT,Tumor Identification,TL2,TARGET,TARGET,LYMPH NODE,LEFT,CT SCAN,INVESTIGATOR,SCREENING,1,SCREENING,2022-08-19,1
NCT01797120,TU,NCT01797120-0136,530,TIND,Target Indicator,,Y,Y,,,CT SCAN,INVESTIGATOR,SCREENING,1,SCREENING,2022-10-10,1
NCT01797120,TU,NCT01797120-0136,531,NTIND,Non-Target Indicator,,N,N,,,CT SCAN,INVESTIGATOR,SCREENING,1,SCREENING,2022-10-10,1
NCT01797120,TU,NCT01797120-0136,532,TUMIDENT,Tumor Identification,TL1,TARGET,TARGET,LUNG,BILATERAL,CT SCAN,INVESTIGATOR,SCREENING,1,SCREENING,2022-10-10,1
NCT01797120,TU,NCT01797120-0137,533,TIND,Target Indicator,,Y,Y,,,CT SCAN,INVESTIGATOR,SCREENING,1,SCREENING,2022-07-28,1
NCT01797120,TU,NCT01797120-0137,534,NTIND,Non-Target Indicator,,N,N,,,CT SCAN,INVESTIGATOR,SCREENING,1,SCREENING,2022-07-28,1
NCT01797120,TU,NCT01797120-0137,535,TUMIDENT,Tumor Identification,TL1,TARGET,TARGET,LUNG,BILATERAL,CT SCAN,INVESTIGATOR,SCREENING,1,SCREENING,2022-07-28,1
NCT01797120,TU,NCT01797120-0137,536,TUMIDENT,Tumor Identification,TL2,TARGET,TARGET,BREAST,LEFT,CT SCAN,INVESTIGATOR,SCREENING,1,SCREENING,2022-07-28,1
NCT01797120,TU,NCT01797120-0138,537,TIND,Target Indicator,,Y,Y,,,CT SCAN,INVESTIGATOR,SCREENING,1,SCREENING,2022-10-16,1
NCT01797120,TU,NCT01797120-0138,538,NTIND,Non-Target Indicator,,N,N,,,CT SCAN,INVESTIGATOR,SCREENING,1,SCREENING,2022-10-16,1
NCT01797120,TU,NCT01797120-0138,539,TUMIDENT,Tumor Identification,TL1,TARGET,TARGET,SKIN,RIGHT,CT SCAN,INVESTIGATOR,SCREENING,1,SCREENING,2022-10-16,1
NCT01797120,TU,NCT01797120-0138,540,TUMIDENT,Tumor Identification,TL2,TARGET,TARGET,BONE,,CT SCAN,INVESTIGATOR,SCREENING,1,SCREENING,2022-10-16,1
NCT01797120,TU,NCT01797120-0139,541,TIND,Target Indicator,,Y,Y,,,CT SCAN,INVESTIGATOR,SCREENING,1,SCREENING,2022-06-02,1
NCT01797120,TU,NCT01797120-0139,542,NTIND,Non-Target Indicator,,N,N,,,CT SCAN,INVESTIGATOR,SCREENING,1,SCREENING,2022-06-02,1
NCT01797120,TU,NCT01797120-0139,543,TUMIDENT,Tumor Identification,TL1,TARGET,TARGET,PLEURA,LEFT,CT SCAN,INVESTIGATOR,SCREENING,1,SCREENING,2022-06-02,1
NCT01797120,TU,NCT01797120-0140,544,TIND,Target Indicator,,Y,Y,,,CT SCAN,INVESTIGATOR,SCREENING,1,SCREENING,2021-09-14,1
NCT01797120,TU,NCT01797120-0140,545,NTIND,Non-Target Indicator,,N,N,,,CT SCAN,INVESTIGATOR,SCREENING,1,SCREENING,2021-09-14,1
NCT01797120,TU,NCT01797120-0140,546,TUMIDENT,Tumor Identification,TL1,TARGET,TARGET,SKIN,LEFT,CT SCAN,INVESTIGATOR,SCREENING,1,SCREENING,2021-09-14,1
NCT01797120,TU,NCT01797120-0141,547,TIND,Target Indicator,,Y,Y,,,CT SCAN,INVESTIGATOR,SCREENING,1,SCREENING,2021-05-17,1
NCT01797120,TU,NCT01797120-0141,548,NTIND,Non-Target Indicator,,N,N,,,CT SCAN,INVESTIGATOR,SCREENING,1,SCREENING,2021-05-17,1
NCT01797120,TU,NCT01797120-0141,549,TUMIDENT,Tumor Identification,TL1,TARGET,TARGET,LUNG,RIGHT,CT SCAN,INVESTIGATOR,SCREENING,1,SCREENING,2021-05-17,1
NCT01797120,TU,NCT01797120-0142,550,TIND,Target Indicator,,Y,Y,,,CT SCAN,INVESTIGATOR,SCREENING,1,SCREENING,2021-07-27,1
NCT01797120,TU,NCT01797120-0142,551,NTIND,Non-Target Indicator,,N,N,,,CT SCAN,INVESTIGATOR,SCREENING,1,SCREENING,2021-07-27,1
NCT01797120,TU,NCT01797120-0142,552,TUMIDENT,Tumor Identification,TL1,TARGET,TARGET,LUNG,RIGHT,CT SCAN,INVESTIGATOR,SCREENING,1,SCREENING,2021-07-27,1
NCT01797120,TU,NCT01797120-0142,553,TUMIDENT,Tumor Identification,TL2,TARGET,TARGET,LIVER,,CT SCAN,INVESTIGATOR,SCREENING,1,SCREENING,2021-07-27,1
NCT01797120,TU,NCT01797120-0142,554,TUMIDENT,Tumor Identification,TL3,TARGET,TARGET,LUNG,LEFT,CT SCAN,INVESTIGATOR,SCREENING,1,SCREENING,2021-07-27,1
NCT01797120,TU,NCT01797120-0143,555,TIND,Target Indicator,,Y,Y,,,CT SCAN,INVESTIGATOR,SCREENING,1,SCREENING,2022-04-09,1
NCT01797120,TU,NCT01797120-0143,556,NTIND,Non-Target Indicator,,N,N,,,CT SCAN,INVESTIGATOR,SCREENING,1,SCREENING,2022-04-09,1
NCT01797120,TU,NCT01797120-0143,557,TUMIDENT,Tumor Identification,TL1,TARGET,TARGET,LIVER,,CT SCAN,INVESTIGATOR,SCREENING,1,SCREENING,2022-04-09,1
NCT01797120,TU,NCT01797120-0143,558,TUMIDENT,Tumor Identification,TL2,TARGET,TARGET,BREAST,LEFT,CT SCAN,INVESTIGATOR,SCREENING,1,SCREENING,2022-04-09,1
NCT01797120,TU,NCT01797120-0143,559,TUMIDENT,Tumor Identification,TL3,TARGET,TARGET,SKIN,RIGHT,CT SCAN,INVESTIGATOR,SCREENING,1,SCREENING,2022-04-09,1
NCT01797120,TU,NCT01797120-0144,560,TIND,Target Indicator,,Y,Y,,,CT SCAN,INVESTIGATOR,SCREENING,1,SCREENING,2021-05-20,1
NCT01797120,TU,NCT01797120-0144,561,NTIND,Non-Target Indicator,,N,N,,,CT SCAN,INVESTIGATOR,SCREENING,1,SCREENING,2021-05-20,1
NCT01797120,TU,NCT01797120-0144,562,TUMIDENT,Tumor Identification,TL1,TARGET,TARGET,BONE,,CT SCAN,INVESTIGATOR,SCREENING,1,SCREENING,2021-05-20,1
NCT01797120,TU,NCT01797120-0145,563,TIND,Target Indicator,,Y,Y,,,CT SCAN,INVESTIGATOR,SCREENING,1,SCREENING,2021-01-05,1
NCT01797120,TU,NCT01797120-0145,564,NTIND,Non-Target Indicator,,N,N,,,CT SCAN,INVESTIGATOR,SCREENING,1,SCREENING,2021-01-05,1
NCT01797120,TU,NCT01797120-0145,565,TUMIDENT,Tumor Identification,TL1,TARGET,TARGET,BONE,,CT SCAN,INVESTIGATOR,SCREENING,1,SCREENING,2021-01-05,1
NCT01797120,TU,NCT01797120-0145,566,TUMIDENT,Tumor Identification,TL2,TARGET,TARGET,LIVER,,CT SCAN,INVESTIGATOR,SCREENING,1,SCREENING,2021-01-05,1
NCT01797120,TU,NCT01797120-0146,567,TIND,Target Indicator,,Y,Y,,,CT SCAN,INVESTIGATOR,SCREENING,1,SCREENING,2022-02-28,1
NCT01797120,TU,NCT01797120-0146,568,NTIND,Non-Target Indicator,,N,N,,,CT SCAN,INVESTIGATOR,SCREENING,1,SCREENING,2022-02-28,1
NCT01797120,TU,NCT01797120-0146,569,TUMIDENT,Tumor Identification,TL1,TARGET,TARGET,LIVER,,CT SCAN,INVESTIGATOR,SCREENING,1,SCREENING,2022-02-28,1
NCT01797120,TU,NCT01797120-0147,570,TIND,Target Indicator,,Y,Y,,,CT SCAN,INVESTIGATOR,SCREENING,1,SCREENING,2021-12-15,1
NCT01797120,TU,NCT01797120-0147,571,NTIND,Non-Target Indicator,,N,N,,,CT SCAN,INVESTIGATOR,SCREENING,1,SCREENING,2021-12-15,1
NCT01797120,TU,NCT01797120-0147,572,TUMIDENT,Tumor Identification,TL1,TARGET,TARGET,BREAST,RIGHT,CT SCAN,INVESTIGATOR,SCREENING,1,SCREENING,2021-12-15,1
NCT01797120,TU,NCT01797120-0147,573,TUMIDENT,Tumor Identification,TL2,TARGET,TARGET,LUNG,BILATERAL,CT SCAN,INVESTIGATOR,SCREENING,1,SCREENING,2021-12-15,1
NCT01797120,TU,NCT01797120-0147,574,TUMIDENT,Tumor Identification,TL3,TARGET,TARGET,BONE,,CT SCAN,INVESTIGATOR,SCREENING,1,SCREENING,2021-12-15,1
NCT01797120,TU,NCT01797120-0148,575,TIND,Target Indicator,,Y,Y,,,CT SCAN,INVESTIGATOR,SCREENING,1,SCREENING,2021-10-10,1
NCT01797120,TU,NCT01797120-0148,576,NTIND,Non-Target Indicator,,N,N,,,CT SCAN,INVESTIGATOR,SCREENING,1,SCREENING,2021-10-10,1
NCT01797120,TU,NCT01797120-0148,577,TUMIDENT,Tumor Identification,TL1,TARGET,TARGET,SKIN,RIGHT,CT SCAN,INVESTIGATOR,SCREENING,1,SCREENING,2021-10-10,1
NCT01797120,TU,NCT01797120-0149,578,TIND,Target Indicator,,Y,Y,,,CT SCAN,INVESTIGATOR,SCREENING,1,SCREENING,2022-08-10,1
NCT01797120,TU,NCT01797120-0149,579,NTIND,Non-Target Indicator,,N,N,,,CT SCAN,INVESTIGATOR,SCREENING,1,SCREENING,2022-08-10,1
NCT01797120,TU,NCT01797120-0149,580,TUMIDENT,Tumor Identification,TL1,TARGET,TARGET,LUNG,LEFT,CT SCAN,INVESTIGATOR,SCREENING,1,SCREENING,2022-08-10,1
NCT01797120,TU,NCT01797120-0149,581,TUMIDENT,Tumor Identification,TL2,TARGET,TARGET,LUNG,BILATERAL,CT SCAN,INVESTIGATOR,SCREENING,1,SCREENING,2022-08-10,1
NCT01797120,TU,NCT01797120-0150,582,TIND,Target Indicator,,Y,Y,,,CT SCAN,INVESTIGATOR,SCREENING,1,SCREENING,2022-03-10,1
NCT01797120,TU,NCT01797120-0150,583,NTIND,Non-Target Indicator,,N,N,,,CT SCAN,INVESTIGATOR,SCREENING,1,SCREENING,2022-03-10,1
NCT01797120,TU,NCT01797120-0150,584,TUMIDENT,Tumor Identification,TL1,TARGET,TARGET,LIVER,,CT SCAN,INVESTIGATOR,SCREENING,1,SCREENING,2022-03-10,1
NCT01797120,TU,NCT01797120-0150,585,TUMIDENT,Tumor Identification,TL2,TARGET,TARGET,LYMPH NODE,RIGHT,CT SCAN,INVESTIGATOR,SCREENING,1,SCREENING,2022-03-10,1
NCT01797120,TU,NCT01797120-0151,586,TIND,Target Indicator,,Y,Y,,,CT SCAN,INVESTIGATOR,SCREENING,1,SCREENING,2021-08-08,1
NCT01797120,TU,NCT01797120-0151,587,NTIND,Non-Target Indicator,,N,N,,,CT SCAN,INVESTIGATOR,SCREENING,1,SCREENING,2021-08-08,1
NCT01797120,TU,NCT01797120-0151,588,TUMIDENT,Tumor Identification,TL1,TARGET,TARGET,LYMPH NODE,LEFT,CT SCAN,INVESTIGATOR,SCREENING,1,SCREENING,2021-08-08,1
NCT01797120,TU,NCT01797120-0151,589,TUMIDENT,Tumor Identification,TL2,TARGET,TARGET,BONE,,CT SCAN,INVESTIGATOR,SCREENING,1,SCREENING,2021-08-08,1
NCT01797120,TU,NCT01797120-0151,590,TUMIDENT,Tumor Identification,TL3,TARGET,TARGET,LIVER,,CT SCAN,INVESTIGATOR,SCREENING,1,SCREENING,2021-08-08,1
NCT01797120,TU,NCT01797120-0152,591,TIND,Target Indicator,,Y,Y,,,CT SCAN,INVESTIGATOR,SCREENING,1,SCREENING,2022-01-09,1
NCT01797120,TU,NCT01797120-0152,592,NTIND,Non-Target Indicator,,N,N,,,CT SCAN,INVESTIGATOR,SCREENING,1,SCREENING,2022-01-09,1
NCT01797120,TU,NCT01797120-0152,593,TUMIDENT,Tumor Identification,TL1,TARGET,TARGET,LIVER,,CT SCAN,INVESTIGATOR,SCREENING,1,SCREENING,2022-01-09,1
NCT01797120,TU,NCT01797120-0152,594,TUMIDENT,Tumor Identification,TL2,TARGET,TARGET,LIVER,,CT SCAN,INVESTIGATOR,SCREENING,1,SCREENING,2022-01-09,1
NCT01797120,TU,NCT01797120-0153,595,TIND,Target Indicator,,Y,Y,,,CT SCAN,INVESTIGATOR,SCREENING,1,SCREENING,2021-10-18,1
NCT01797120,TU,NCT01797120-0153,596,NTIND,Non-Target Indicator,,N,N,,,CT SCAN,INVESTIGATOR,SCREENING,1,SCREENING,2021-10-18,1
NCT01797120,TU,NCT01797120-0153,597,TUMIDENT,Tumor Identification,TL1,TARGET,TARGET,LUNG,RIGHT,CT SCAN,INVESTIGATOR,SCREENING,1,SCREENING,2021-10-18,1
NCT01797120,TU,NCT01797120-0153,598,TUMIDENT,Tumor Identification,TL2,TARGET,TARGET,LIVER,,CT SCAN,INVESTIGATOR,SCREENING,1,SCREENING,2021-10-18,1
NCT01797120,TU,NCT01797120-0154,599,TIND,Target Indicator,,Y,Y,,,CT SCAN,INVESTIGATOR,SCREENING,1,SCREENING,2022-07-18,1
NCT01797120,TU,NCT01797120-0154,600,NTIND,Non-Target Indicator,,N,N,,,CT SCAN,INVESTIGATOR,SCREENING,1,SCREENING,2022-07-18,1
NCT01797120,TU,NCT01797120-0154,601,TUMIDENT,Tumor Identification,TL1,TARGET,TARGET,PLEURA,LEFT,CT SCAN,INVESTIGATOR,SCREENING,1,SCREENING,2022-07-18,1
NCT01797120,TU,NCT01797120-0154,602,TUMIDENT,Tumor Identification,TL2,TARGET,TARGET,LIVER,,CT SCAN,INVESTIGATOR,SCREENING,1,SCREENING,2022-07-18,1
NCT01797120,TU,NCT01797120-0154,603,TUMIDENT,Tumor Identification,TL3,TARGET,TARGET,BONE,,CT SCAN,INVESTIGATOR,SCREENING,1,SCREENING,2022-07-18,1
NCT01797120,TU,NCT01797120-0155,604,TIND,Target Indicator,,Y,Y,,,CT SCAN,INVESTIGATOR,SCREENING,1,SCREENING,2022-11-02,1
NCT01797120,TU,NCT01797120-0155,605,NTIND,Non-Target Indicator,,N,N,,,CT SCAN,INVESTIGATOR,SCREENING,1,SCREENING,2022-11-02,1
NCT01797120,TU,NCT01797120-0155,606,TUMIDENT,Tumor Identification,TL1,TARGET,TARGET,BONE,,CT SCAN,INVESTIGATOR,SCREENING,1,SCREENING,2022-11-02,1
NCT01797120,TU,NCT01797120-0156,607,TIND,Target Indicator,,Y,Y,,,CT SCAN,INVESTIGATOR,SCREENING,1,SCREENING,2022-03-14,1
NCT01797120,TU,NCT01797120-0156,608,NTIND,Non-Target Indicator,,N,N,,,CT SCAN,INVESTIGATOR,SCREENING,1,SCREENING,2022-03-14,1
NCT01797120,TU,NCT01797120-0156,609,TUMIDENT,Tumor Identification,TL1,TARGET,TARGET,PLEURA,RIGHT,CT SCAN,INVESTIGATOR,SCREENING,1,SCREENING,2022-03-14,1
NCT01797120,TU,NCT01797120-0156,610,TUMIDENT,Tumor Identification,TL2,TARGET,TARGET,BREAST,RIGHT,CT SCAN,INVESTIGATOR,SCREENING,1,SCREENING,2022-03-14,1
NCT01797120,TU,NCT01797120-0157,611,TIND,Target Indicator,,Y,Y,,,CT SCAN,INVESTIGATOR,SCREENING,1,SCREENING,2022-05-24,1
NCT01797120,TU,NCT01797120-0157,612,NTIND,Non-Target Indicator,,N,N,,,CT SCAN,INVESTIGATOR,SCREENING,1,SCREENING,2022-05-24,1
NCT01797120,TU,NCT01797120-0157,613,TUMIDENT,Tumor Identification,TL1,TARGET,TARGET,PLEURA,LEFT,CT SCAN,INVESTIGATOR,SCREENING,1,SCREENING,2022-05-24,1
NCT01797120,TU,NCT01797120-0157,614,TUMIDENT,Tumor Identification,TL2,TARGET,TARGET,PLEURA,LEFT,CT SCAN,INVESTIGATOR,SCREENING,1,SCREENING,2022-05-24,1
NCT01797120,TU,NCT01797120-0158,615,TIND,Target Indicator,,Y,Y,,,CT SCAN,INVESTIGATOR,SCREENING,1,SCREENING,2022-03-26,1
NCT01797120,TU,NCT01797120-0158,616,NTIND,Non-Target Indicator,,N,N,,,CT SCAN,INVESTIGATOR,SCREENING,1,SCREENING,2022-03-26,1
NCT01797120,TU,NCT01797120-0158,617,TUMIDENT,Tumor Identification,TL1,TARGET,TARGET,LUNG,LEFT,CT SCAN,INVESTIGATOR,SCREENING,1,SCREENING,2022-03-26,1
NCT01797120,TU,NCT01797120-0158,618,TUMIDENT,Tumor Identification,TL2,TARGET,TARGET,BONE,,CT SCAN,INVESTIGATOR,SCREENING,1,SCREENING,2022-03-26,1
NCT01797120,TU,NCT01797120-0158,619,TUMIDENT,Tumor Identification,TL3,TARGET,TARGET,BONE,,CT SCAN,INVESTIGATOR,SCREENING,1,SCREENING,2022-03-26,1
NCT01797120,TU,NCT01797120-0159,620,TIND,Target Indicator,,Y,Y,,,CT SCAN,INVESTIGATOR,SCREENING,1,SCREENING,2021-11-23,1
NCT01797120,TU,NCT01797120-0159,621,NTIND,Non-Target Indicator,,N,N,,,CT SCAN,INVESTIGATOR,SCREENING,1,SCREENING,2021-11-23,1
NCT01797120,TU,NCT01797120-0159,622,TUMIDENT,Tumor Identification,TL1,TARGET,TARGET,BONE,,CT SCAN,INVESTIGATOR,SCREENING,1,SCREENING,2021-11-23,1
NCT01797120,TU,NCT01797120-0160,623,TIND,Target Indicator,,Y,Y,,,CT SCAN,INVESTIGATOR,SCREENING,1,SCREENING,2022-05-06,1
NCT01797120,TU,NCT01797120-0160,624,NTIND,Non-Target Indicator,,N,N,,,CT SCAN,INVESTIGATOR,SCREENING,1,SCREENING,2022-05-06,1
NCT01797120,TU,NCT01797120-0160,625,TUMIDENT,Tumor Identification,TL1,TARGET,TARGET,BONE,,CT SCAN,INVESTIGATOR,SCREENING,1,SCREENING,2022-05-06,1
NCT01797120,TU,NCT01797120-0160,626,TUMIDENT,Tumor Identification,TL2,TARGET,TARGET,LUNG,RIGHT,CT SCAN,INVESTIGATOR,SCREENING,1,SCREENING,2022-05-06,1
NCT01797120,TU,NCT01797120-0160,627,TUMIDENT,Tumor Identification,TL3,TARGET,TARGET,LUNG,LEFT,CT SCAN,INVESTIGATOR,SCREENING,1,SCREENING,2022-05-06,1
NCT01797120,TU,NCT01797120-0161,628,TIND,Target Indicator,,Y,Y,,,CT SCAN,INVESTIGATOR,SCREENING,1,SCREENING,2021-02-23,1
NCT01797120,TU,NCT01797120-0161,629,NTIND,Non-Target Indicator,,N,N,,,CT SCAN,INVESTIGATOR,SCREENING,1,SCREENING,2021-02-23,1
NCT01797120,TU,NCT01797120-0161,630,TUMIDENT,Tumor Identification,TL1,TARGET,TARGET,SKIN,RIGHT,CT SCAN,INVESTIGATOR,SCREENING,1,SCREENING,2021-02-23,1
NCT01797120,TU,NCT01797120-0161,631,TUMIDENT,Tumor Identification,TL2,TARGET,TARGET,BONE,,CT SCAN,INVESTIGATOR,SCREENING,1,SCREENING,2021-02-23,1
NCT01797120,TU,NCT01797120-0161,632,TUMIDENT,Tumor Identification,TL3,TARGET,TARGET,SKIN,LEFT,CT SCAN,INVESTIGATOR,SCREENING,1,SCREENING,2021-02-23,1
NCT01797120,TU,NCT01797120-0162,633,TIND,Target Indicator,,Y,Y,,,CT SCAN,INVESTIGATOR,SCREENING,1,SCREENING,2021-04-05,1
NCT01797120,TU,NCT01797120-0162,634,NTIND,Non-Target Indicator,,N,N,,,CT SCAN,INVESTIGATOR,SCREENING,1,SCREENING,2021-04-05,1
NCT01797120,TU,NCT01797120-0162,635,TUMIDENT,Tumor Identification,TL1,TARGET,TARGET,PLEURA,LEFT,CT SCAN,INVESTIGATOR,SCREENING,1,SCREENING,2021-04-05,1
NCT01797120,TU,NCT01797120-0162,636,TUMIDENT,Tumor Identification,TL2,TARGET,TARGET,LYMPH NODE,LEFT,CT SCAN,INVESTIGATOR,SCREENING,1,SCREENING,2021-04-05,1
NCT01797120,TU,NCT01797120-0162,637,TUMIDENT,Tumor Identification,TL3,TARGET,TARGET,SKIN,RIGHT,CT SCAN,INVESTIGATOR,SCREENING,1,SCREENING,2021-04-05,1
NCT01797120,TU,NCT01797120-0163,638,TIND,Target Indicator,,Y,Y,,,CT SCAN,INVESTIGATOR,SCREENING,1,SCREENING,2021-03-01,1
NCT01797120,TU,NCT01797120-0163,639,NTIND,Non-Target Indicator,,N,N,,,CT SCAN,INVESTIGATOR,SCREENING,1,SCREENING,2021-03-01,1
NCT01797120,TU,NCT01797120-0163,640,TUMIDENT,Tumor Identification,TL1,TARGET,TARGET,PLEURA,LEFT,CT SCAN,INVESTIGATOR,SCREENING,1,SCREENING,2021-03-01,1
NCT01797120,TU,NCT01797120-0163,641,TUMIDENT,Tumor Identification,TL2,TARGET,TARGET,LUNG,LEFT,CT SCAN,INVESTIGATOR,SCREENING,1,SCREENING,2021-03-01,1
NCT01797120,TU,NCT01797120-0164,642,TIND,Target Indicator,,Y,Y,,,CT SCAN,INVESTIGATOR,SCREENING,1,SCREENING,2021-12-03,1
NCT01797120,TU,NCT01797120-0164,643,NTIND,Non-Target Indicator,,N,N,,,CT SCAN,INVESTIGATOR,SCREENING,1,SCREENING,2021-12-03,1
NCT01797120,TU,NCT01797120-0164,644,TUMIDENT,Tumor Identification,TL1,TARGET,TARGET,LUNG,LEFT,CT SCAN,INVESTIGATOR,SCREENING,1,SCREENING,2021-12-03,1
NCT01797120,TU,NCT01797120-0165,645,TIND,Target Indicator,,Y,Y,,,CT SCAN,INVESTIGATOR,SCREENING,1,SCREENING,2022-10-29,1
NCT01797120,TU,NCT01797120-0165,646,NTIND,Non-Target Indicator,,N,N,,,CT SCAN,INVESTIGATOR,SCREENING,1,SCREENING,2022-10-29,1
NCT01797120,TU,NCT01797120-0165,647,TUMIDENT,Tumor Identification,TL1,TARGET,TARGET,LUNG,BILATERAL,CT SCAN,INVESTIGATOR,SCREENING,1,SCREENING,2022-10-29,1
NCT01797120,TU,NCT01797120-0166,648,TIND,Target Indicator,,Y,Y,,,CT SCAN,INVESTIGATOR,SCREENING,1,SCREENING,2022-09-29,1
NCT01797120,TU,NCT01797120-0166,649,NTIND,Non-Target Indicator,,N,N,,,CT SCAN,INVESTIGATOR,SCREENING,1,SCREENING,2022-09-29,1
NCT01797120,TU,NCT01797120-0166,650,TUMIDENT,Tumor Identification,TL1,TARGET,TARGET,PLEURA,RIGHT,CT SCAN,INVESTIGATOR,SCREENING,1,SCREENING,2022-09-29,1
NCT01797120,TU,NCT01797120-0167,651,TIND,Target Indicator,,Y,Y,,,CT SCAN,INVESTIGATOR,SCREENING,1,SCREENING,2021-06-13,1
NCT01797120,TU,NCT01797120-0167,652,NTIND,Non-Target Indicator,,N,N,,,CT SCAN,INVESTIGATOR,SCREENING,1,SCREENING,2021-06-13,1
NCT01797120,TU,NCT01797120-0167,653,TUMIDENT,Tumor Identification,TL1,TARGET,TARGET,LYMPH NODE,RIGHT,CT SCAN,INVESTIGATOR,SCREENING,1,SCREENING,2021-06-13,1
NCT01797120,TU,NCT01797120-0167,654,TUMIDENT,Tumor Identification,TL2,TARGET,TARGET,LIVER,,CT SCAN,INVESTIGATOR,SCREENING,1,SCREENING,2021-06-13,1
NCT01797120,TU,NCT01797120-0168,655,TIND,Target Indicator,,Y,Y,,,CT SCAN,INVESTIGATOR,SCREENING,1,SCREENING,2022-07-25,1
NCT01797120,TU,NCT01797120-0168,656,NTIND,Non-Target Indicator,,N,N,,,CT SCAN,INVESTIGATOR,SCREENING,1,SCREENING,2022-07-25,1
NCT01797120,TU,NCT01797120-0168,657,TUMIDENT,Tumor Identification,TL1,TARGET,TARGET,LIVER,,CT SCAN,INVESTIGATOR,SCREENING,1,SCREENING,2022-07-25,1
NCT01797120,TU,NCT01797120-0168,658,TUMIDENT,Tumor Identification,TL2,TARGET,TARGET,SKIN,RIGHT,CT SCAN,INVESTIGATOR,SCREENING,1,SCREENING,2022-07-25,1
NCT01797120,TU,NCT01797120-0168,659,TUMIDENT,Tumor Identification,TL3,TARGET,TARGET,LUNG,LEFT,CT SCAN,INVESTIGATOR,SCREENING,1,SCREENING,2022-07-25,1
NCT01797120,TU,NCT01797120-0169,660,TIND,Target Indicator,,Y,Y,,,CT SCAN,INVESTIGATOR,SCREENING,1,SCREENING,2021-04-17,1
NCT01797120,TU,NCT01797120-0169,661,NTIND,Non-Target Indicator,,N,N,,,CT SCAN,INVESTIGATOR,SCREENING,1,SCREENING,2021-04-17,1
NCT01797120,TU,NCT01797120-0169,662,TUMIDENT,Tumor Identification,TL1,TARGET,TARGET,LYMPH NODE,RIGHT,CT SCAN,INVESTIGATOR,SCREENING,1,SCREENING,2021-04-17,1
NCT01797120,TU,NCT01797120-0169,663,TUMIDENT,Tumor Identification,TL2,TARGET,TARGET,SKIN,LEFT,CT SCAN,INVESTIGATOR,SCREENING,1,SCREENING,2021-04-17,1
NCT01797120,TU,NCT01797120-0170,664,TIND,Target Indicator,,Y,Y,,,CT SCAN,INVESTIGATOR,SCREENING,1,SCREENING,2021-07-21,1
NCT01797120,TU,NCT01797120-0170,665,NTIND,Non-Target Indicator,,N,N,,,CT SCAN,INVESTIGATOR,SCREENING,1,SCREENING,2021-07-21,1
NCT01797120,TU,NCT01797120-0170,666,TUMIDENT,Tumor Identification,TL1,TARGET,TARGET,SKIN,LEFT,CT SCAN,INVESTIGATOR,SCREENING,1,SCREENING,2021-07-21,1
NCT01797120,TU,NCT01797120-0171,667,TIND,Target Indicator,,Y,Y,,,CT SCAN,INVESTIGATOR,SCREENING,1,SCREENING,2021-10-28,1
NCT01797120,TU,NCT01797120-0171,668,NTIND,Non-Target Indicator,,N,N,,,CT SCAN,INVESTIGATOR,SCREENING,1,SCREENING,2021-10-28,1
NCT01797120,TU,NCT01797120-0171,669,TUMIDENT,Tumor Identification,TL1,TARGET,TARGET,LUNG,LEFT,CT SCAN,INVESTIGATOR,SCREENING,1,SCREENING,2021-10-28,1
NCT01797120,TU,NCT01797120-0172,670,TIND,Target Indicator,,Y,Y,,,CT SCAN,INVESTIGATOR,SCREENING,1,SCREENING,2022-07-05,1
NCT01797120,TU,NCT01797120-0172,671,NTIND,Non-Target Indicator,,N,N,,,CT SCAN,INVESTIGATOR,SCREENING,1,SCREENING,2022-07-05,1
NCT01797120,TU,NCT01797120-0172,672,TUMIDENT,Tumor Identification,TL1,TARGET,TARGET,LUNG,RIGHT,CT SCAN,INVESTIGATOR,SCREENING,1,SCREENING,2022-07-05,1
NCT01797120,TU,NCT01797120-0173,673,TIND,Target Indicator,,Y,Y,,,CT SCAN,INVESTIGATOR,SCREENING,1,SCREENING,2022-11-11,1
NCT01797120,TU,NCT01797120-0173,674,NTIND,Non-Target Indicator,,N,N,,,CT SCAN,INVESTIGATOR,SCREENING,1,SCREENING,2022-11-11,1
NCT01797120,TU,NCT01797120-0173,675,TUMIDENT,Tumor Identification,TL1,TARGET,TARGET,LUNG,LEFT,CT SCAN,INVESTIGATOR,SCREENING,1,SCREENING,2022-11-11,1
NCT01797120,TU,NCT01797120-0173,676,TUMIDENT,Tumor Identification,TL2,TARGET,TARGET,BONE,,CT SCAN,INVESTIGATOR,SCREENING,1,SCREENING,2022-11-11,1
NCT01797120,TU,NCT01797120-0173,677,TUMIDENT,Tumor Identification,TL3,TARGET,TARGET,LUNG,LEFT,CT SCAN,INVESTIGATOR,SCREENING,1,SCREENING,2022-11-11,1
NCT01797120,TU,NCT01797120-0174,678,TIND,Target Indicator,,Y,Y,,,CT SCAN,INVESTIGATOR,SCREENING,1,SCREENING,2022-10-11,1
NCT01797120,TU,NCT01797120-0174,679,NTIND,Non-Target Indicator,,N,N,,,CT SCAN,INVESTIGATOR,SCREENING,1,SCREENING,2022-10-11,1
NCT01797120,TU,NCT01797120-0174,680,TUMIDENT,Tumor Identification,TL1,TARGET,TARGET,BONE,,CT SCAN,INVESTIGATOR,SCREENING,1,SCREENING,2022-10-11,1
NCT01797120,TU,NCT01797120-0175,681,TIND,Target Indicator,,Y,Y,,,CT SCAN,INVESTIGATOR,SCREENING,1,SCREENING,2021-01-14,1
NCT01797120,TU,NCT01797120-0175,682,NTIND,Non-Target Indicator,,N,N,,,CT SCAN,INVESTIGATOR,SCREENING,1,SCREENING,2021-01-14,1
NCT01797120,TU,NCT01797120-0175,683,TUMIDENT,Tumor Identification,TL1,TARGET,TARGET,BONE,,CT SCAN,INVESTIGATOR,SCREENING,1,SCREENING,2021-01-14,1
NCT01797120,TU,NCT01797120-0175,684,TUMIDENT,Tumor Identification,TL2,TARGET,TARGET,BREAST,RIGHT,CT SCAN,INVESTIGATOR,SCREENING,1,SCREENING,2021-01-14,1
NCT01797120,TU,NCT01797120-0176,685,TIND,Target Indicator,,Y,Y,,,CT SCAN,INVESTIGATOR,SCREENING,1,SCREENING,2022-12-22,1
NCT01797120,TU,NCT01797120-0176,686,NTIND,Non-Target Indicator,,N,N,,,CT SCAN,INVESTIGATOR,SCREENING,1,SCREENING,2022-12-22,1
NCT01797120,TU,NCT01797120-0176,687,TUMIDENT,Tumor Identification,TL1,TARGET,TARGET,SKIN,LEFT,CT SCAN,INVESTIGATOR,SCREENING,1,SCREENING,2022-12-22,1
NCT01797120,TU,NCT01797120-0176,688,TUMIDENT,Tumor Identification,TL2,TARGET,TARGET,BREAST,RIGHT,CT SCAN,INVESTIGATOR,SCREENING,1,SCREENING,2022-12-22,1
NCT01797120,TU,NCT01797120-0176,689,TUMIDENT,Tumor Identification,TL3,TARGET,TARGET,LUNG,BILATERAL,CT SCAN,INVESTIGATOR,SCREENING,1,SCREENING,2022-12-22,1
NCT01797120,TU,NCT01797120-0177,690,TIND,Target Indicator,,Y,Y,,,CT SCAN,INVESTIGATOR,SCREENING,1,SCREENING,2022-06-19,1
NCT01797120,TU,NCT01797120-0177,691,NTIND,Non-Target Indicator,,N,N,,,CT SCAN,INVESTIGATOR,SCREENING,1,SCREENING,2022-06-19,1
NCT01797120,TU,NCT01797120-0177,692,TUMIDENT,Tumor Identification,TL1,TARGET,TARGET,PLEURA,LEFT,CT SCAN,INVESTIGATOR,SCREENING,1,SCREENING,2022-06-19,1
NCT01797120,TU,NCT01797120-0177,693,TUMIDENT,Tumor Identification,TL2,TARGET,TARGET,LUNG,LEFT,CT SCAN,INVESTIGATOR,SCREENING,1,SCREENING,2022-06-19,1
NCT01797120,TU,NCT01797120-0177,694,TUMIDENT,Tumor Identification,TL3,TARGET,TARGET,SKIN,RIGHT,CT SCAN,INVESTIGATOR,SCREENING,1,SCREENING,2022-06-19,1
NCT01797120,TU,NCT01797120-0178,695,TIND,Target Indicator,,Y,Y,,,CT SCAN,INVESTIGATOR,SCREENING,1,SCREENING,2022-05-20,1
NCT01797120,TU,NCT01797120-0178,696,NTIND,Non-Target Indicator,,N,N,,,CT SCAN,INVESTIGATOR,SCREENING,1,SCREENING,2022-05-20,1
NCT01797120,TU,NCT01797120-0178,697,TUMIDENT,Tumor Identification,TL1,TARGET,TARGET,BREAST,LEFT,CT SCAN,INVESTIGATOR,SCREENING,1,SCREENING,2022-05-20,1
NCT01797120,TU,NCT01797120-0179,698,TIND,Target Indicator,,Y,Y,,,CT SCAN,INVESTIGATOR,SCREENING,1,SCREENING,2021-07-29,1
NCT01797120,TU,NCT01797120-0179,699,NTIND,Non-Target Indicator,,N,N,,,CT SCAN,INVESTIGATOR,SCREENING,1,SCREENING,2021-07-29,1
NCT01797120,TU,NCT01797120-0179,700,TUMIDENT,Tumor Identification,TL1,TARGET,TARGET,BONE,,CT SCAN,INVESTIGATOR,SCREENING,1,SCREENING,2021-07-29,1
NCT01797120,TU,NCT01797120-0180,701,TIND,Target Indicator,,Y,Y,,,CT SCAN,INVESTIGATOR,SCREENING,1,SCREENING,2022-04-01,1
NCT01797120,TU,NCT01797120-0180,702,NTIND,Non-Target Indicator,,N,N,,,CT SCAN,INVESTIGATOR,SCREENING,1,SCREENING,2022-04-01,1
NCT01797120,TU,NCT01797120-0180,703,TUMIDENT,Tumor Identification,TL1,TARGET,TARGET,PLEURA,RIGHT,CT SCAN,INVESTIGATOR,SCREENING,1,SCREENING,2022-04-01,1
NCT01797120,TU,NCT01797120-0180,704,TUMIDENT,Tumor Identification,TL2,TARGET,TARGET,BONE,,CT SCAN,INVESTIGATOR,SCREENING,1,SCREENING,2022-04-01,1
NCT01797120,TU,NCT01797120-0181,705,TIND,Target Indicator,,Y,Y,,,CT SCAN,INVESTIGATOR,SCREENING,1,SCREENING,2022-04-14,1
NCT01797120,TU,NCT01797120-0181,706,NTIND,Non-Target Indicator,,N,N,,,CT SCAN,INVESTIGATOR,SCREENING,1,SCREENING,2022-04-14,1
NCT01797120,TU,NCT01797120-0181,707,TUMIDENT,Tumor Identification,TL1,TARGET,TARGET,LIVER,,CT SCAN,INVESTIGATOR,SCREENING,1,SCREENING,2022-04-14,1
NCT01797120,TU,NCT01797120-0181,708,TUMIDENT,Tumor Identification,TL2,TARGET,TARGET,BONE,,CT SCAN,INVESTIGATOR,SCREENING,1,SCREENING,2022-04-14,1
NCT01797120,TU,NCT01797120-0182,709,TIND,Target Indicator,,Y,Y,,,CT SCAN,INVESTIGATOR,SCREENING,1,SCREENING,2022-04-19,1
NCT01797120,TU,NCT01797120-0182,710,NTIND,Non-Target Indicator,,N,N,,,CT SCAN,INVESTIGATOR,SCREENING,1,SCREENING,2022-04-19,1
NCT01797120,TU,NCT01797120-0182,711,TUMIDENT,Tumor Identification,TL1,TARGET,TARGET,LIVER,,CT SCAN,INVESTIGATOR,SCREENING,1,SCREENING,2022-04-19,1
NCT01797120,TU,NCT01797120-0182,712,TUMIDENT,Tumor Identification,TL2,TARGET,TARGET,BREAST,RIGHT,CT SCAN,INVESTIGATOR,SCREENING,1,SCREENING,2022-04-19,1
NCT01797120,TU,NCT01797120-0183,713,TIND,Target Indicator,,Y,Y,,,CT SCAN,INVESTIGATOR,SCREENING,1,SCREENING,2022-07-27,1
NCT01797120,TU,NCT01797120-0183,714,NTIND,Non-Target Indicator,,N,N,,,CT SCAN,INVESTIGATOR,SCREENING,1,SCREENING,2022-07-27,1
NCT01797120,TU,NCT01797120-0183,715,TUMIDENT,Tumor Identification,TL1,TARGET,TARGET,LUNG,RIGHT,CT SCAN,INVESTIGATOR,SCREENING,1,SCREENING,2022-07-27,1
NCT01797120,TU,NCT01797120-0183,716,TUMIDENT,Tumor Identification,TL2,TARGET,TARGET,BONE,,CT SCAN,INVESTIGATOR,SCREENING,1,SCREENING,2022-07-27,1
NCT01797120,TU,NCT01797120-0183,717,TUMIDENT,Tumor Identification,TL3,TARGET,TARGET,LIVER,,CT SCAN,INVESTIGATOR,SCREENING,1,SCREENING,2022-07-27,1
NCT01797120,TU,NCT01797120-0184,718,TIND,Target Indicator,,Y,Y,,,CT SCAN,INVESTIGATOR,SCREENING,1,SCREENING,2022-02-05,1
NCT01797120,TU,NCT01797120-0184,719,NTIND,Non-Target Indicator,,N,N,,,CT SCAN,INVESTIGATOR,SCREENING,1,SCREENING,2022-02-05,1
NCT01797120,TU,NCT01797120-0184,720,TUMIDENT,Tumor Identification,TL1,TARGET,TARGET,LIVER,,CT SCAN,INVESTIGATOR,SCREENING,1,SCREENING,2022-02-05,1
NCT01797120,TU,NCT01797120-0184,721,TUMIDENT,Tumor Identification,TL2,TARGET,TARGET,LYMPH NODE,LEFT,CT SCAN,INVESTIGATOR,SCREENING,1,SCREENING,2022-02-05,1
NCT01797120,TU,NCT01797120-0184,722,TUMIDENT,Tumor Identification,TL3,TARGET,TARGET,LUNG,RIGHT,CT SCAN,INVESTIGATOR,SCREENING,1,SCREENING,2022-02-05,1
NCT01797120,TU,NCT01797120-0185,723,TIND,Target Indicator,,Y,Y,,,CT SCAN,INVESTIGATOR,SCREENING,1,SCREENING,2021-02-26,1
NCT01797120,TU,NCT01797120-0185,724,NTIND,Non-Target Indicator,,N,N,,,CT SCAN,INVESTIGATOR,SCREENING,1,SCREENING,2021-02-26,1
NCT01797120,TU,NCT01797120-0185,725,TUMIDENT,Tumor Identification,TL1,TARGET,TARGET,LYMPH NODE,RIGHT,CT SCAN,INVESTIGATOR,SCREENING,1,SCREENING,2021-02-26,1
NCT01797120,TU,NCT01797120-0186,726,TIND,Target Indicator,,Y,Y,,,CT SCAN,INVESTIGATOR,SCREENING,1,SCREENING,2022-10-26,1
NCT01797120,TU,NCT01797120-0186,727,NTIND,Non-Target Indicator,,N,N,,,CT SCAN,INVESTIGATOR,SCREENING,1,SCREENING,2022-10-26,1
NCT01797120,TU,NCT01797120-0186,728,TUMIDENT,Tumor Identification,TL1,TARGET,TARGET,BONE,,CT SCAN,INVESTIGATOR,SCREENING,1,SCREENING,2022-10-26,1
NCT01797120,TU,NCT01797120-0186,729,TUMIDENT,Tumor Identification,TL2,TARGET,TARGET,BONE,,CT SCAN,INVESTIGATOR,SCREENING,1,SCREENING,2022-10-26,1
NCT01797120,TU,NCT01797120-0187,730,TIND,Target Indicator,,Y,Y,,,CT SCAN,INVESTIGATOR,SCREENING,1,SCREENING,2021-10-08,1
NCT01797120,TU,NCT01797120-0187,731,NTIND,Non-Target Indicator,,N,N,,,CT SCAN,INVESTIGATOR,SCREENING,1,SCREENING,2021-10-08,1
NCT01797120,TU,NCT01797120-0187,732,TUMIDENT,Tumor Identification,TL1,TARGET,TARGET,BONE,,CT SCAN,INVESTIGATOR,SCREENING,1,SCREENING,2021-10-08,1
NCT01797120,TU,NCT01797120-0188,733,TIND,Target Indicator,,Y,Y,,,CT SCAN,INVESTIGATOR,SCREENING,1,SCREENING,2021-01-05,1
NCT01797120,TU,NCT01797120-0188,734,NTIND,Non-Target Indicator,,N,N,,,CT SCAN,INVESTIGATOR,SCREENING,1,SCREENING,2021-01-05,1
NCT01797120,TU,NCT01797120-0188,735,TUMIDENT,Tumor Identification,TL1,TARGET,TARGET,BONE,,CT SCAN,INVESTIGATOR,SCREENING,1,SCREENING,2021-01-05,1
NCT01797120,TU,NCT01797120-0188,736,TUMIDENT,Tumor Identification,TL2,TARGET,TARGET,LUNG,BILATERAL,CT SCAN,INVESTIGATOR,SCREENING,1,SCREENING,2021-01-05,1
NCT01797120,TU,NCT01797120-0189,737,TIND,Target Indicator,,Y,Y,,,CT SCAN,INVESTIGATOR,SCREENING,1,SCREENING,2022-09-05,1
NCT01797120,TU,NCT01797120-0189,738,NTIND,Non-Target Indicator,,N,N,,,CT SCAN,INVESTIGATOR,SCREENING,1,SCREENING,2022-09-05,1
NCT01797120,TU,NCT01797120-0189,739,TUMIDENT,Tumor Identification,TL1,TARGET,TARGET,BREAST,RIGHT,CT SCAN,INVESTIGATOR,SCREENING,1,SCREENING,2022-09-05,1
NCT01797120,TU,NCT01797120-0189,740,TUMIDENT,Tumor Identification,TL2,TARGET,TARGET,BONE,,CT SCAN,INVESTIGATOR,SCREENING,1,SCREENING,2022-09-05,1
NCT01797120,TU,NCT01797120-0189,741,TUMIDENT,Tumor Identification,TL3,TARGET,TARGET,LUNG,LEFT,CT SCAN,INVESTIGATOR,SCREENING,1,SCREENING,2022-09-05,1
NCT01797120,TU,NCT01797120-0190,742,TIND,Target Indicator,,Y,Y,,,CT SCAN,INVESTIGATOR,SCREENING,1,SCREENING,2021-11-02,1
NCT01797120,TU,NCT01797120-0190,743,NTIND,Non-Target Indicator,,N,N,,,CT SCAN,INVESTIGATOR,SCREENING,1,SCREENING,2021-11-02,1
NCT01797120,TU,NCT01797120-0190,744,TUMIDENT,Tumor Identification,TL1,TARGET,TARGET,LIVER,,CT SCAN,INVESTIGATOR,SCREENING,1,SCREENING,2021-11-02,1
NCT01797120,TU,NCT01797120-0191,745,TIND,Target Indicator,,Y,Y,,,CT SCAN,INVESTIGATOR,SCREENING,1,SCREENING,2021-12-10,1
NCT01797120,TU,NCT01797120-0191,746,NTIND,Non-Target Indicator,,N,N,,,CT SCAN,INVESTIGATOR,SCREENING,1,SCREENING,2021-12-10,1
NCT01797120,TU,NCT01797120-0191,747,TUMIDENT,Tumor Identification,TL1,TARGET,TARGET,SKIN,RIGHT,CT SCAN,INVESTIGATOR,SCREENING,1,SCREENING,2021-12-10,1
NCT01797120,TU,NCT01797120-0192,748,TIND,Target Indicator,,Y,Y,,,CT SCAN,INVESTIGATOR,SCREENING,1,SCREENING,2022-06-27,1
NCT01797120,TU,NCT01797120-0192,749,NTIND,Non-Target Indicator,,N,N,,,CT SCAN,INVESTIGATOR,SCREENING,1,SCREENING,2022-06-27,1
NCT01797120,TU,NCT01797120-0192,750,TUMIDENT,Tumor Identification,TL1,TARGET,TARGET,BREAST,RIGHT,CT SCAN,INVESTIGATOR,SCREENING,1,SCREENING,2022-06-27,1
NCT01797120,TU,NCT01797120-0192,751,TUMIDENT,Tumor Identification,TL2,TARGET,TARGET,LUNG,BILATERAL,CT SCAN,INVESTIGATOR,SCREENING,1,SCREENING,2022-06-27,1
NCT01797120,TU,NCT01797120-0193,752,TIND,Target Indicator,,Y,Y,,,CT SCAN,INVESTIGATOR,SCREENING,1,SCREENING,2022-07-21,1
NCT01797120,TU,NCT01797120-0193,753,NTIND,Non-Target Indicator,,N,N,,,CT SCAN,INVESTIGATOR,SCREENING,1,SCREENING,2022-07-21,1
NCT01797120,TU,NCT01797120-0193,754,TUMIDENT,Tumor Identification,TL1,TARGET,TARGET,LIVER,,CT SCAN,INVESTIGATOR,SCREENING,1,SCREENING,2022-07-21,1
NCT01797120,TU,NCT01797120-0193,755,TUMIDENT,Tumor Identification,TL2,TARGET,TARGET,LIVER,,CT SCAN,INVESTIGATOR,SCREENING,1,SCREENING,2022-07-21,1
NCT01797120,TU,NCT01797120-0193,756,TUMIDENT,Tumor Identification,TL3,TARGET,TARGET,LUNG,BILATERAL,CT SCAN,INVESTIGATOR,SCREENING,1,SCREENING,2022-07-21,1
NCT01797120,TU,NCT01797120-0194,757,TIND,Target Indicator,,Y,Y,,,CT SCAN,INVESTIGATOR,SCREENING,1,SCREENING,2021-06-03,1
NCT01797120,TU,NCT01797120-0194,758,NTIND,Non-Target Indicator,,N,N,,,CT SCAN,INVESTIGATOR,SCREENING,1,SCREENING,2021-06-03,1
NCT01797120,TU,NCT01797120-0194,759,TUMIDENT,Tumor Identification,TL1,TARGET,TARGET,BONE,,CT SCAN,INVESTIGATOR,SCREENING,1,SCREENING,2021-06-03,1
NCT01797120,TU,NCT01797120-0194,760,TUMIDENT,Tumor Identification,TL2,TARGET,TARGET,LIVER,,CT SCAN,INVESTIGATOR,SCREENING,1,SCREENING,2021-06-03,1
NCT01797120,TU,NCT01797120-0195,761,TIND,Target Indicator,,Y,Y,,,CT SCAN,INVESTIGATOR,SCREENING,1,SCREENING,2021-12-20,1
NCT01797120,TU,NCT01797120-0195,762,NTIND,Non-Target Indicator,,N,N,,,CT SCAN,INVESTIGATOR,SCREENING,1,SCREENING,2021-12-20,1
NCT01797120,TU,NCT01797120-0195,763,TUMIDENT,Tumor Identification,TL1,TARGET,TARGET,LUNG,LEFT,CT SCAN,INVESTIGATOR,SCREENING,1,SCREENING,2021-12-20,1
NCT01797120,TU,NCT01797120-0195,764,TUMIDENT,Tumor Identification,TL2,TARGET,TARGET,LIVER,,CT SCAN,INVESTIGATOR,SCREENING,1,SCREENING,2021-12-20,1
NCT01797120,TU,NCT01797120-0195,765,TUMIDENT,Tumor Identification,TL3,TARGET,TARGET,BREAST,LEFT,CT SCAN,INVESTIGATOR,SCREENING,1,SCREENING,2021-12-20,1
NCT01797120,TU,NCT01797120-0196,766,TIND,Target Indicator,,Y,Y,,,CT SCAN,INVESTIGATOR,SCREENING,1,SCREENING,2021-12-24,1
NCT01797120,TU,NCT01797120-0196,767,NTIND,Non-Target Indicator,,N,N,,,CT SCAN,INVESTIGATOR,SCREENING,1,SCREENING,2021-12-24,1
NCT01797120,TU,NCT01797120-0196,768,TUMIDENT,Tumor Identification,TL1,TARGET,TARGET,LIVER,,CT SCAN,INVESTIGATOR,SCREENING,1,SCREENING,2021-12-24,1
NCT01797120,TU,NCT01797120-0196,769,TUMIDENT,Tumor Identification,TL2,TARGET,TARGET,LIVER,,CT SCAN,INVESTIGATOR,SCREENING,1,SCREENING,2021-12-24,1
NCT01797120,TU,NCT01797120-0197,770,TIND,Target Indicator,,Y,Y,,,CT SCAN,INVESTIGATOR,SCREENING,1,SCREENING,2022-11-29,1
NCT01797120,TU,NCT01797120-0197,771,NTIND,Non-Target Indicator,,N,N,,,CT SCAN,INVESTIGATOR,SCREENING,1,SCREENING,2022-11-29,1
NCT01797120,TU,NCT01797120-0197,772,TUMIDENT,Tumor Identification,TL1,TARGET,TARGET,BONE,,CT SCAN,INVESTIGATOR,SCREENING,1,SCREENING,2022-11-29,1
NCT01797120,TU,NCT01797120-0198,773,TIND,Target Indicator,,Y,Y,,,CT SCAN,INVESTIGATOR,SCREENING,1,SCREENING,2022-02-12,1
NCT01797120,TU,NCT01797120-0198,774,NTIND,Non-Target Indicator,,N,N,,,CT SCAN,INVESTIGATOR,SCREENING,1,SCREENING,2022-02-12,1
NCT01797120,TU,NCT01797120-0198,775,TUMIDENT,Tumor Identification,TL1,TARGET,TARGET,BREAST,LEFT,CT SCAN,INVESTIGATOR,SCREENING,1,SCREENING,2022-02-12,1
NCT01797120,TU,NCT01797120-0198,776,TUMIDENT,Tumor Identification,TL2,TARGET,TARGET,LUNG,LEFT,CT SCAN,INVESTIGATOR,SCREENING,1,SCREENING,2022-02-12,1
NCT01797120,TU,NCT01797120-0199,777,TIND,Target Indicator,,Y,Y,,,CT SCAN,INVESTIGATOR,SCREENING,1,SCREENING,2022-02-16,1
NCT01797120,TU,NCT01797120-0199,778,NTIND,Non-Target Indicator,,N,N,,,CT SCAN,INVESTIGATOR,SCREENING,1,SCREENING,2022-02-16,1
NCT01797120,TU,NCT01797120-0199,779,TUMIDENT,Tumor Identification,TL1,TARGET,TARGET,PLEURA,RIGHT,CT SCAN,INVESTIGATOR,SCREENING,1,SCREENING,2022-02-16,1
NCT01797120,TU,NCT01797120-0199,780,TUMIDENT,Tumor Identification,TL2,TARGET,TARGET,LUNG,RIGHT,CT SCAN,INVESTIGATOR,SCREENING,1,SCREENING,2022-02-16,1
NCT01797120,TU,NCT01797120-0199,781,TUMIDENT,Tumor Identification,TL3,TARGET,TARGET,LIVER,,CT SCAN,INVESTIGATOR,SCREENING,1,SCREENING,2022-02-16,1
NCT01797120,TU,NCT01797120-0200,782,TIND,Target Indicator,,Y,Y,,,CT SCAN,INVESTIGATOR,SCREENING,1,SCREENING,2021-01-30,1
NCT01797120,TU,NCT01797120-0200,783,NTIND,Non-Target Indicator,,N,N,,,CT SCAN,INVESTIGATOR,SCREENING,1,SCREENING,2021-01-30,1
NCT01797120,TU,NCT01797120-0200,784,TUMIDENT,Tumor Identification,TL1,TARGET,TARGET,LIVER,,CT SCAN,INVESTIGATOR,SCREENING,1,SCREENING,2021-01-30,1
