{
  "_links": {
    "parentBiomedicalConcept": {
      "href": "/mdr/bc/biomedicalconcepts/C118936",
      "title": "Acute Myocardial Infarction Type",
      "type": "Biomedical Concept"
    },
    "parentPackage": {
      "href": "/mdr/specializations/sdtm/packages/2024-06-27/datasetspecializations",
      "title": "SDTM Dataset Specialization Package Effective 2024-06-27",
      "type": "SDTM Dataset Specialization Package"
    },
    "self": {
      "href": "/mdr/specializations/sdtm/datasetspecializations/ACMITYPE",
      "title": "Acute Myocardial Infarction Type",
      "type": "SDTM Dataset Specialization"
    }
  },
  "datasetSpecializationId": "ACMITYPE",
  "domain": "FA",
  "shortName": "Acute Myocardial Infarction Type",
  "source": "FA.FATESTCD",
  "sdtmigStartVersion": "3-2",
  "sdtmigEndVersion": "",
  "variables": [
    {
      "name": "FATESTCD",
      "isNonStandard": false,
      "codelist": {
        "conceptId": "C119015",
        "submissionValue": "CVFATSCD",
        "href": "https://evsexplore.semantics.cancer.gov/evsexplore/concept/ncit/C119015"
      },
      "assignedTerm": {
        "conceptId": "C118936",
        "value": "ACMITYPE"
      },
      "role": "Topic",
      "relationship": {
        "subject": "FATESTCD",
        "linkingPhrase": "is the code for the value in",
        "predicateTerm": "IS_DECODED_BY",
        "object": "FATEST"
      },
      "mandatoryVariable": true,
      "mandatoryValue": true,
      "comparator": "EQ"
    },
    {
      "name": "FATEST",
      "isNonStandard": false,
      "codelist": {
        "conceptId": "C119014",
        "submissionValue": "CVFATS",
        "href": "https://evsexplore.semantics.cancer.gov/evsexplore/concept/ncit/C119014"
      },
      "assignedTerm": {
        "conceptId": "C118936",
        "value": "Acute Myocardial Infarction Type"
      },
      "role": "Qualifier",
      "relationship": {
        "subject": "FATEST",
        "linkingPhrase": "decodes the value in",
        "predicateTerm": "DECODES",
        "object": "FATESTCD"
      },
      "mandatoryVariable": true,
      "mandatoryValue": true
    },
    {
      "name": "FAOBJ",
      "dataElementConceptId": "C82546",
      "isNonStandard": false,
      "assignedTerm": {
        "value": "ACUTE MYOCARDIAL INFARCTION"
      },
      "role": "Qualifier",
      "relationship": {
        "subject": "FAOBJ",
        "linkingPhrase": "is the object of the observation in",
        "predicateTerm": "IS_ATTRIBUTE_FOR",
        "object": "FATESTCD"
      },
      "mandatoryVariable": true,
      "mandatoryValue": true,
      "comparator": "EQ"
    },
    {
      "name": "FACAT",
      "dataElementConceptId": "C25372",
      "isNonStandard": false,
      "role": "Qualifier",
      "relationship": {
        "subject": "FACAT",
        "linkingPhrase": "groups values in",
        "predicateTerm": "GROUPS",
        "object": "FATESTCD"
      },
      "mandatoryVariable": false,
      "mandatoryValue": false
    },
    {
      "name": "FASCAT",
      "dataElementConceptId": "C25692",
      "isNonStandard": false,
      "role": "Qualifier",
      "relationship": {
        "subject": "FASCAT",
        "linkingPhrase": "values are grouped by",
        "predicateTerm": "IS_GROUPED_BY",
        "object": "FACAT"
      },
      "mandatoryVariable": false,
      "mandatoryValue": false
    },
    {
      "name": "FAORRES",
      "dataElementConceptId": "C70856",
      "isNonStandard": false,
      "codelist": {
        "conceptId": "C119016",
        "submissionValue": "CVFARS",
        "href": "https://evsexplore.semantics.cancer.gov/evsexplore/concept/ncit/C119016"
      },
      "valueList": [
        "TYPE 1 MYOCARDIAL INFARCTION",
        "TYPE 2 MYOCARDIAL INFARCTION",
        "TYPE 3 MYOCARDIAL INFARCTION",
        "TYPE 4A MYOCARDIAL INFARCTION",
        "TYPE 4B MYOCARDIAL INFARCTION",
        "TYPE 4C MYOCARDIAL INFARCTION",
        "TYPE 5 MYOCARDIAL INFARCTION"
      ],
      "role": "Qualifier",
      "dataType": "text",
      "length": 200,
      "relationship": {
        "subject": "FAORRES",
        "linkingPhrase": "is the result of the test in",
        "predicateTerm": "IS_RESULT_OF",
        "object": "FATESTCD"
      },
      "mandatoryVariable": true,
      "mandatoryValue": false,
      "originType": "Collected",
      "originSource": "Vendor",
      "vlmTarget": true
    },
    {
      "name": "FASTRESC",
      "dataElementConceptId": "C70856",
      "isNonStandard": false,
      "codelist": {
        "conceptId": "C119016",
        "submissionValue": "CVFARS",
        "href": "https://evsexplore.semantics.cancer.gov/evsexplore/concept/ncit/C119016"
      },
      "valueList": [
        "TYPE 1 MYOCARDIAL INFARCTION",
        "TYPE 2 MYOCARDIAL INFARCTION",
        "TYPE 3 MYOCARDIAL INFARCTION",
        "TYPE 4A MYOCARDIAL INFARCTION",
        "TYPE 4B MYOCARDIAL INFARCTION",
        "TYPE 4C MYOCARDIAL INFARCTION",
        "TYPE 5 MYOCARDIAL INFARCTION"
      ],
      "role": "Qualifier",
      "dataType": "text",
      "length": 200,
      "relationship": {
        "subject": "FASTRESC",
        "linkingPhrase": "is the result of the test in",
        "predicateTerm": "IS_RESULT_OF",
        "object": "FAORRES"
      },
      "mandatoryVariable": true,
      "mandatoryValue": false,
      "originType": "Collected",
      "originSource": "Vendor",
      "vlmTarget": true
    },
    {
      "name": "FAMETHOD",
      "dataElementConceptId": "C82535",
      "isNonStandard": false,
      "codelist": {
        "conceptId": "C85492",
        "submissionValue": "METHOD",
        "href": "https://evsexplore.semantics.cancer.gov/evsexplore/concept/ncit/C85492"
      },
      "valueList": [
        "CORONARY ANGIOGRAPHY",
        "AUTOPSY"
      ],
      "role": "Qualifier",
      "relationship": {
        "subject": "FAMETHOD",
        "linkingPhrase": "is the method for the test in",
        "predicateTerm": "SPECIFIES",
        "object": "FATESTCD"
      },
      "mandatoryVariable": false,
      "mandatoryValue": false,
      "comparator": "IN"
    },
    {
      "name": "FAEVAL",
      "dataElementConceptId": "C51824",
      "isNonStandard": false,
      "codelist": {
        "conceptId": "C78735",
        "submissionValue": "EVAL",
        "href": "https://evsexplore.semantics.cancer.gov/evsexplore/concept/ncit/C78735"
      },
      "valueList": [
        "INVESTIGATOR",
        "ADJUDICATOR"
      ],
      "role": "Qualifier",
      "relationship": {
        "subject": "FAEVAL",
        "linkingPhrase": "is the role of the assessor who performed the test in",
        "predicateTerm": "PERFORMS",
        "object": "FATESTCD"
      },
      "mandatoryVariable": false,
      "mandatoryValue": false,
      "comparator": "IN"
    },
    {
      "name": "FADTC",
      "dataElementConceptId": "C82515",
      "isNonStandard": false,
      "role": "Timing",
      "relationship": {
        "subject": "FADTC",
        "linkingPhrase": "is the date of occurrence for",
        "predicateTerm": "IS_TIMING_FOR",
        "object": "FATESTCD"
      },
      "mandatoryVariable": true,
      "mandatoryValue": false
    },
    {
      "name": "FALNKID",
      "dataElementConceptId": "C117050",
      "isNonStandard": false,
      "role": "Identifier",
      "mandatoryVariable": false,
      "mandatoryValue": false
    }
  ]
}
