{
  "_links": {
    "parentBiomedicalConcept": {
      "href": "/mdr/bc/biomedicalconcepts/C100286",
      "title": "CDISC ADAS-Cog - Executive Function Maze: Time",
      "type": "Biomedical Concept"
    },
    "parentPackage": {
      "href": "/mdr/specializations/sdtm/packages/2025-12-16/datasetspecializations",
      "title": "SDTM Dataset Specialization Package Effective 2025-12-16",
      "type": "SDTM Dataset Specialization Package"
    },
    "self": {
      "href": "/mdr/specializations/sdtm/datasetspecializations/ADCMZ02",
      "title": "CDISC ADAS-Cog - Executive Function Maze: Time",
      "type": "SDTM Dataset Specialization"
    }
  },
  "datasetSpecializationId": "ADCMZ02",
  "domain": "FT",
  "shortName": "CDISC ADAS-Cog - Executive Function Maze: Time",
  "source": "FT.FTTESTCD",
  "sdtmigStartVersion": "3-2",
  "sdtmigEndVersion": "",
  "variables": [
    {
      "name": "FTTESTCD",
      "isNonStandard": false,
      "codelist": {
        "conceptId": "C100132",
        "submissionValue": "ADCTC",
        "href": "https://evsexplore.semantics.cancer.gov/evsexplore/concept/ncit/C100132"
      },
      "assignedTerm": {
        "conceptId": "C100286",
        "value": "ADCMZ02"
      },
      "role": "Topic",
      "relationship": {
        "subject": "FTTESTCD",
        "linkingPhrase": "is the code for the value in",
        "predicateTerm": "IS_DECODED_BY",
        "object": "FTTEST"
      },
      "mandatoryVariable": true,
      "mandatoryValue": true,
      "comparator": "EQ"
    },
    {
      "name": "FTTEST",
      "isNonStandard": false,
      "codelist": {
        "conceptId": "C100131",
        "submissionValue": "ADCTN",
        "href": "https://evsexplore.semantics.cancer.gov/evsexplore/concept/ncit/C100131"
      },
      "assignedTerm": {
        "conceptId": "C100286",
        "value": "Executive Function Maze: Time"
      },
      "role": "Qualifier",
      "relationship": {
        "subject": "FTTEST",
        "linkingPhrase": "decodes the value in",
        "predicateTerm": "DECODES",
        "object": "FTTESTCD"
      },
      "mandatoryVariable": true,
      "mandatoryValue": true
    },
    {
      "name": "FTCAT",
      "dataElementConceptId": "C25372",
      "isNonStandard": false,
      "codelist": {
        "conceptId": "C115304",
        "submissionValue": "FTCAT",
        "href": "https://evsexplore.semantics.cancer.gov/evsexplore/concept/ncit/C115304"
      },
      "assignedTerm": {
        "conceptId": "C100762",
        "value": "ADAS-COG"
      },
      "role": "Qualifier",
      "relationship": {
        "subject": "FTCAT",
        "linkingPhrase": "groups values in",
        "predicateTerm": "GROUPS",
        "object": "FTTESTCD"
      },
      "mandatoryVariable": true,
      "mandatoryValue": true,
      "comparator": "EQ"
    },
    {
      "name": "FTSCAT",
      "dataElementConceptId": "C25692",
      "isNonStandard": false,
      "assignedTerm": {
        "value": "EXECUTIVE FUNCTION MAZE"
      },
      "role": "Qualifier",
      "relationship": {
        "subject": "FTSCAT",
        "linkingPhrase": "groups values in",
        "predicateTerm": "GROUPS",
        "object": "FTCAT"
      },
      "mandatoryVariable": false,
      "mandatoryValue": false,
      "comparator": "EQ"
    },
    {
      "name": "FTORRES",
      "dataElementConceptId": "C91106",
      "isNonStandard": false,
      "valueList": [
        "0",
        "1",
        "2",
        "3",
        "4",
        "5",
        "6",
        "7",
        "8",
        "9",
        "10",
        "11",
        "12",
        "13",
        "14",
        "15",
        "16",
        "17",
        "18",
        "19",
        "20",
        "21",
        "22",
        "23",
        "24",
        "25",
        "26",
        "27",
        "28",
        "29",
        "30",
        "31",
        "32",
        "33",
        "34",
        "35",
        "36",
        "37",
        "38",
        "39",
        "40",
        "41",
        "42",
        "43",
        "44",
        "45",
        "46",
        "47",
        "48",
        "49",
        "50",
        "51",
        "52",
        "53",
        "54",
        "55",
        "56",
        "57",
        "58",
        "59",
        "60",
        "61",
        "62",
        "63",
        "64",
        "65",
        "66",
        "67",
        "68",
        "69",
        "70",
        "71",
        "72",
        "73",
        "74",
        "75",
        "76",
        "77",
        "78",
        "79",
        "80",
        "81",
        "82",
        "83",
        "84",
        "85",
        "86",
        "87",
        "88",
        "89",
        "90",
        "91",
        "92",
        "93",
        "94",
        "95",
        "96",
        "97",
        "98",
        "99",
        "100",
        "101",
        "102",
        "103",
        "104",
        "105",
        "106",
        "107",
        "108",
        "109",
        "110",
        "111",
        "112",
        "113",
        "114",
        "115",
        "116",
        "117",
        "118",
        "119",
        "120",
        "121",
        "122",
        "123",
        "124",
        "125",
        "126",
        "127",
        "128",
        "129",
        "130",
        "131",
        "132",
        "133",
        "134",
        "135",
        "136",
        "137",
        "138",
        "139",
        "140",
        "141",
        "142",
        "143",
        "144",
        "145",
        "146",
        "147",
        "148",
        "149",
        "150",
        "151",
        "152",
        "153",
        "154",
        "155",
        "156",
        "157",
        "158",
        "159",
        "160",
        "161",
        "162",
        "163",
        "164",
        "165",
        "166",
        "167",
        "168",
        "169",
        "170",
        "171",
        "172",
        "173",
        "174",
        "175",
        "176",
        "177",
        "178",
        "179",
        "180",
        "181",
        "182",
        "183",
        "184",
        "185",
        "186",
        "187",
        "188",
        "189",
        "190",
        "191",
        "192",
        "193",
        "194",
        "195",
        "196",
        "197",
        "198",
        "199",
        "200",
        "201",
        "202",
        "203",
        "204",
        "205",
        "206",
        "207",
        "208",
        "209",
        "210",
        "211",
        "212",
        "213",
        "214",
        "215",
        "216",
        "217",
        "218",
        "219",
        "220",
        "221",
        "222",
        "223",
        "224",
        "225",
        "226",
        "227",
        "228",
        "229",
        "230",
        "231",
        "232",
        "233",
        "234",
        "235",
        "236",
        "237",
        "238",
        "239",
        "240"
      ],
      "role": "Qualifier",
      "dataType": "float",
      "length": 4,
      "format": "5.2",
      "significantDigits": 2,
      "relationship": {
        "subject": "FTORRES",
        "linkingPhrase": "is the result of the test in",
        "predicateTerm": "IS_RESULT_OF",
        "object": "FTTESTCD"
      },
      "mandatoryVariable": true,
      "mandatoryValue": false,
      "originType": "Collected",
      "originSource": "Investigator",
      "vlmTarget": true
    },
    {
      "name": "FTORRESU",
      "dataElementConceptId": "C42574",
      "isNonStandard": false,
      "assignedTerm": {
        "conceptId": "C42535",
        "value": "s"
      },
      "role": "Qualifier",
      "relationship": {
        "subject": "FTORRESU",
        "linkingPhrase": "is the unit for the value in",
        "predicateTerm": "IS_UNIT_FOR",
        "object": "FTORRES"
      },
      "mandatoryVariable": true,
      "mandatoryValue": false,
      "originType": "Collected",
      "originSource": "Investigator",
      "vlmTarget": true
    },
    {
      "name": "FTSTRESC",
      "dataElementConceptId": "C46126",
      "isNonStandard": false,
      "valueList": [
        "0",
        "1",
        "2",
        "3",
        "4",
        "5",
        "6",
        "7",
        "8",
        "9",
        "10",
        "11",
        "12",
        "13",
        "14",
        "15",
        "16",
        "17",
        "18",
        "19",
        "20",
        "21",
        "22",
        "23",
        "24",
        "25",
        "26",
        "27",
        "28",
        "29",
        "30",
        "31",
        "32",
        "33",
        "34",
        "35",
        "36",
        "37",
        "38",
        "39",
        "40",
        "41",
        "42",
        "43",
        "44",
        "45",
        "46",
        "47",
        "48",
        "49",
        "50",
        "51",
        "52",
        "53",
        "54",
        "55",
        "56",
        "57",
        "58",
        "59",
        "60",
        "61",
        "62",
        "63",
        "64",
        "65",
        "66",
        "67",
        "68",
        "69",
        "70",
        "71",
        "72",
        "73",
        "74",
        "75",
        "76",
        "77",
        "78",
        "79",
        "80",
        "81",
        "82",
        "83",
        "84",
        "85",
        "86",
        "87",
        "88",
        "89",
        "90",
        "91",
        "92",
        "93",
        "94",
        "95",
        "96",
        "97",
        "98",
        "99",
        "100",
        "101",
        "102",
        "103",
        "104",
        "105",
        "106",
        "107",
        "108",
        "109",
        "110",
        "111",
        "112",
        "113",
        "114",
        "115",
        "116",
        "117",
        "118",
        "119",
        "120",
        "121",
        "122",
        "123",
        "124",
        "125",
        "126",
        "127",
        "128",
        "129",
        "130",
        "131",
        "132",
        "133",
        "134",
        "135",
        "136",
        "137",
        "138",
        "139",
        "140",
        "141",
        "142",
        "143",
        "144",
        "145",
        "146",
        "147",
        "148",
        "149",
        "150",
        "151",
        "152",
        "153",
        "154",
        "155",
        "156",
        "157",
        "158",
        "159",
        "160",
        "161",
        "162",
        "163",
        "164",
        "165",
        "166",
        "167",
        "168",
        "169",
        "170",
        "171",
        "172",
        "173",
        "174",
        "175",
        "176",
        "177",
        "178",
        "179",
        "180",
        "181",
        "182",
        "183",
        "184",
        "185",
        "186",
        "187",
        "188",
        "189",
        "190",
        "191",
        "192",
        "193",
        "194",
        "195",
        "196",
        "197",
        "198",
        "199",
        "200",
        "201",
        "202",
        "203",
        "204",
        "205",
        "206",
        "207",
        "208",
        "209",
        "210",
        "211",
        "212",
        "213",
        "214",
        "215",
        "216",
        "217",
        "218",
        "219",
        "220",
        "221",
        "222",
        "223",
        "224",
        "225",
        "226",
        "227",
        "228",
        "229",
        "230",
        "231",
        "232",
        "233",
        "234",
        "235",
        "236",
        "237",
        "238",
        "239",
        "240"
      ],
      "role": "Qualifier",
      "dataType": "float",
      "length": 4,
      "format": "5.2",
      "significantDigits": 2,
      "relationship": {
        "subject": "FTSTRESC",
        "linkingPhrase": "is the result of the test in",
        "predicateTerm": "IS_RESULT_OF",
        "object": "FTTESTCD"
      },
      "mandatoryVariable": true,
      "mandatoryValue": false,
      "originType": "Derived",
      "originSource": "Sponsor",
      "vlmTarget": true
    },
    {
      "name": "FTSTRESN",
      "dataElementConceptId": "C46126",
      "isNonStandard": false,
      "valueList": [
        "0",
        "1",
        "2",
        "3",
        "4",
        "5",
        "6",
        "7",
        "8",
        "9",
        "10",
        "11",
        "12",
        "13",
        "14",
        "15",
        "16",
        "17",
        "18",
        "19",
        "20",
        "21",
        "22",
        "23",
        "24",
        "25",
        "26",
        "27",
        "28",
        "29",
        "30",
        "31",
        "32",
        "33",
        "34",
        "35",
        "36",
        "37",
        "38",
        "39",
        "40",
        "41",
        "42",
        "43",
        "44",
        "45",
        "46",
        "47",
        "48",
        "49",
        "50",
        "51",
        "52",
        "53",
        "54",
        "55",
        "56",
        "57",
        "58",
        "59",
        "60",
        "61",
        "62",
        "63",
        "64",
        "65",
        "66",
        "67",
        "68",
        "69",
        "70",
        "71",
        "72",
        "73",
        "74",
        "75",
        "76",
        "77",
        "78",
        "79",
        "80",
        "81",
        "82",
        "83",
        "84",
        "85",
        "86",
        "87",
        "88",
        "89",
        "90",
        "91",
        "92",
        "93",
        "94",
        "95",
        "96",
        "97",
        "98",
        "99",
        "100",
        "101",
        "102",
        "103",
        "104",
        "105",
        "106",
        "107",
        "108",
        "109",
        "110",
        "111",
        "112",
        "113",
        "114",
        "115",
        "116",
        "117",
        "118",
        "119",
        "120",
        "121",
        "122",
        "123",
        "124",
        "125",
        "126",
        "127",
        "128",
        "129",
        "130",
        "131",
        "132",
        "133",
        "134",
        "135",
        "136",
        "137",
        "138",
        "139",
        "140",
        "141",
        "142",
        "143",
        "144",
        "145",
        "146",
        "147",
        "148",
        "149",
        "150",
        "151",
        "152",
        "153",
        "154",
        "155",
        "156",
        "157",
        "158",
        "159",
        "160",
        "161",
        "162",
        "163",
        "164",
        "165",
        "166",
        "167",
        "168",
        "169",
        "170",
        "171",
        "172",
        "173",
        "174",
        "175",
        "176",
        "177",
        "178",
        "179",
        "180",
        "181",
        "182",
        "183",
        "184",
        "185",
        "186",
        "187",
        "188",
        "189",
        "190",
        "191",
        "192",
        "193",
        "194",
        "195",
        "196",
        "197",
        "198",
        "199",
        "200",
        "201",
        "202",
        "203",
        "204",
        "205",
        "206",
        "207",
        "208",
        "209",
        "210",
        "211",
        "212",
        "213",
        "214",
        "215",
        "216",
        "217",
        "218",
        "219",
        "220",
        "221",
        "222",
        "223",
        "224",
        "225",
        "226",
        "227",
        "228",
        "229",
        "230",
        "231",
        "232",
        "233",
        "234",
        "235",
        "236",
        "237",
        "238",
        "239",
        "240"
      ],
      "role": "Qualifier",
      "dataType": "float",
      "length": 4,
      "format": "5.2",
      "significantDigits": 2,
      "relationship": {
        "subject": "FTSTRESN",
        "linkingPhrase": "is the result of the test in",
        "predicateTerm": "IS_RESULT_OF",
        "object": "FTTESTCD"
      },
      "mandatoryVariable": true,
      "mandatoryValue": false,
      "originType": "Derived",
      "originSource": "Sponsor",
      "vlmTarget": true
    },
    {
      "name": "FTSTRESU",
      "dataElementConceptId": "C42574",
      "isNonStandard": false,
      "assignedTerm": {
        "conceptId": "C42535",
        "value": "s"
      },
      "role": "Qualifier",
      "relationship": {
        "subject": "FTSTRESU",
        "linkingPhrase": "is the unit for the value in",
        "predicateTerm": "IS_UNIT_FOR",
        "object": "FTSTRESN"
      },
      "mandatoryVariable": true,
      "mandatoryValue": false,
      "originType": "Derived",
      "originSource": "Sponsor",
      "vlmTarget": true
    },
    {
      "name": "FTSTAT",
      "dataElementConceptId": "C41202",
      "isNonStandard": false,
      "codelist": {
        "conceptId": "C66789",
        "submissionValue": "ND",
        "href": "https://evsexplore.semantics.cancer.gov/evsexplore/concept/ncit/C66789"
      },
      "valueList": [
        "NOT DONE"
      ],
      "role": "Qualifier",
      "mandatoryVariable": false,
      "mandatoryValue": false
    },
    {
      "name": "FTREASND",
      "dataElementConceptId": "C82556",
      "isNonStandard": false,
      "valueList": [
        "Subject too cognitively impaired to complete",
        "Subject was unable to complete for physical reasons",
        "Subject refused",
        "Not Done for reason other than above - explain"
      ],
      "role": "Qualifier",
      "mandatoryVariable": false,
      "mandatoryValue": false
    },
    {
      "name": "FTDTC",
      "dataElementConceptId": "C82515",
      "isNonStandard": false,
      "role": "Timing",
      "relationship": {
        "subject": "FTDTC",
        "linkingPhrase": "is the date of occurrence for",
        "predicateTerm": "IS_TIMING_FOR",
        "object": "FTTESTCD"
      },
      "mandatoryVariable": true,
      "mandatoryValue": false
    }
  ]
}
