{
  "_links": {
    "parentBiomedicalConcept": {
      "href": "/mdr/bc/biomedicalconcepts/C135383",
      "title": "Age at Death",
      "type": "Biomedical Concept"
    },
    "parentPackage": {
      "href": "/mdr/specializations/sdtm/packages/2025-07-01/datasetspecializations",
      "title": "SDTM Dataset Specialization Package Effective 2025-07-01",
      "type": "SDTM Dataset Specialization Package"
    },
    "self": {
      "href": "/mdr/specializations/sdtm/datasetspecializations/AGEDTH",
      "title": "Age at Death",
      "type": "SDTM Dataset Specialization"
    }
  },
  "datasetSpecializationId": "AGEDTH",
  "domain": "DD",
  "shortName": "Age at Death",
  "source": "DD.DDTESTCD",
  "sdtmigStartVersion": "3-2",
  "sdtmigEndVersion": "",
  "variables": [
    {
      "name": "DDTESTCD",
      "isNonStandard": false,
      "codelist": {
        "conceptId": "C116108",
        "submissionValue": "DTHDXCD",
        "href": "https://evsexplore.semantics.cancer.gov/evsexplore/concept/ncit/C116108"
      },
      "assignedTerm": {
        "conceptId": "C135383",
        "value": "AGEDTH"
      },
      "role": "Topic",
      "relationship": {
        "subject": "DDTESTCD",
        "linkingPhrase": "is the code for the value in",
        "predicateTerm": "IS_DECODED_BY",
        "object": "DDTEST"
      },
      "mandatoryVariable": true,
      "mandatoryValue": true,
      "comparator": "EQ"
    },
    {
      "name": "DDTEST",
      "isNonStandard": false,
      "codelist": {
        "conceptId": "C116107",
        "submissionValue": "DTHDX",
        "href": "https://evsexplore.semantics.cancer.gov/evsexplore/concept/ncit/C116107"
      },
      "assignedTerm": {
        "conceptId": "C135383",
        "value": "Age at Death"
      },
      "role": "Qualifier",
      "relationship": {
        "subject": "DDTEST",
        "linkingPhrase": "decodes the value in",
        "predicateTerm": "DECODES",
        "object": "DDTESTCD"
      },
      "mandatoryVariable": true,
      "mandatoryValue": true
    },
    {
      "name": "DDORRES",
      "dataElementConceptId": "C70856",
      "isNonStandard": false,
      "role": "Qualifier",
      "dataType": "integer",
      "length": 8,
      "relationship": {
        "subject": "DDORRES",
        "linkingPhrase": "is the result of the test in",
        "predicateTerm": "IS_RESULT_OF",
        "object": "DDTESTCD"
      },
      "mandatoryVariable": true,
      "mandatoryValue": false,
      "originType": "Collected",
      "originSource": "Vendor",
      "vlmTarget": true
    },
    {
      "name": "DDORRESU",
      "dataElementConceptId": "C50400",
      "isNonStandard": false,
      "codelist": {
        "conceptId": "C66781",
        "submissionValue": "AGEU",
        "href": "https://evsexplore.semantics.cancer.gov/evsexplore/concept/ncit/C66781"
      },
      "valueList": [
        "DAYS",
        "HOURS",
        "MONTHS",
        "WEEKS",
        "YEARS"
      ],
      "role": "Qualifier",
      "relationship": {
        "subject": "DDORRESU",
        "linkingPhrase": "is the unit for the value in",
        "predicateTerm": "IS_UNIT_FOR",
        "object": "DDORRES"
      },
      "mandatoryVariable": false,
      "mandatoryValue": false
    },
    {
      "name": "DDSTRESC",
      "dataElementConceptId": "C70856",
      "isNonStandard": false,
      "role": "Qualifier",
      "dataType": "integer",
      "length": 8,
      "relationship": {
        "subject": "DDSTRESC",
        "linkingPhrase": "is the result of the test in",
        "predicateTerm": "IS_RESULT_OF",
        "object": "DDTESTCD"
      },
      "mandatoryVariable": true,
      "mandatoryValue": false,
      "originType": "Collected",
      "originSource": "Vendor",
      "vlmTarget": true
    },
    {
      "name": "DDSTRESN",
      "dataElementConceptId": "C70856",
      "isNonStandard": false,
      "role": "Qualifier",
      "dataType": "integer",
      "length": 8,
      "relationship": {
        "subject": "DDSTRESN",
        "linkingPhrase": "is the result of the test in",
        "predicateTerm": "IS_RESULT_OF",
        "object": "DDTESTCD"
      },
      "mandatoryVariable": false,
      "mandatoryValue": false,
      "originType": "Collected",
      "originSource": "Vendor",
      "vlmTarget": true
    },
    {
      "name": "DDSTRESU",
      "dataElementConceptId": "C50400",
      "isNonStandard": false,
      "codelist": {
        "conceptId": "C66781",
        "submissionValue": "AGEU",
        "href": "https://evsexplore.semantics.cancer.gov/evsexplore/concept/ncit/C66781"
      },
      "valueList": [
        "DAYS",
        "HOURS",
        "MONTHS",
        "WEEKS",
        "YEARS"
      ],
      "role": "Qualifier",
      "dataType": "integer",
      "length": 8,
      "relationship": {
        "subject": "DDSTRESU",
        "linkingPhrase": "is the unit for the value in",
        "predicateTerm": "IS_UNIT_FOR",
        "object": "DDORRES"
      },
      "mandatoryVariable": false,
      "mandatoryValue": false
    },
    {
      "name": "DDDTC",
      "dataElementConceptId": "C82515",
      "isNonStandard": false,
      "role": "Timing",
      "relationship": {
        "subject": "DDDTC",
        "linkingPhrase": "is the date of occurrence for",
        "predicateTerm": "IS_TIMING_FOR",
        "object": "DDTESTCD"
      },
      "mandatoryVariable": true,
      "mandatoryValue": false
    }
  ]
}
