{
  "_links": {
    "parentBiomedicalConcept": {
      "href": "/mdr/bc/biomedicalconcepts/C49694",
      "title": "Planned Maximum Age of Subjects",
      "type": "Biomedical Concept"
    },
    "parentPackage": {
      "href": "/mdr/specializations/sdtm/packages/2025-07-01/datasetspecializations",
      "title": "SDTM Dataset Specialization Package Effective 2025-07-01",
      "type": "SDTM Dataset Specialization Package"
    },
    "self": {
      "href": "/mdr/specializations/sdtm/datasetspecializations/AGEMAX",
      "title": "Planned Maximum Age of Subjects (TS)",
      "type": "SDTM Dataset Specialization"
    }
  },
  "datasetSpecializationId": "AGEMAX",
  "domain": "TS",
  "shortName": "Planned Maximum Age of Subjects (TS)",
  "source": "TS.TSPARMCD",
  "sdtmigStartVersion": "3-2",
  "sdtmigEndVersion": "",
  "variables": [
    {
      "name": "TSPARMCD",
      "dataElementConceptId": "C83445",
      "isNonStandard": false,
      "codelist": {
        "conceptId": "C66738",
        "submissionValue": "TSPARMCD",
        "href": "https://evsexplore.semantics.cancer.gov/evsexplore/concept/ncit/C66738"
      },
      "assignedTerm": {
        "conceptId": "C49694",
        "value": "AGEMAX"
      },
      "role": "Topic",
      "relationship": {
        "subject": "TSPARMCD",
        "linkingPhrase": "is the code for the value in",
        "predicateTerm": "IS_DECODED_BY",
        "object": "TSPARM"
      },
      "mandatoryVariable": false,
      "mandatoryValue": false,
      "comparator": "EQ"
    },
    {
      "name": "TSPARM",
      "dataElementConceptId": "C49691",
      "isNonStandard": false,
      "codelist": {
        "conceptId": "C67152",
        "submissionValue": "TSPARM",
        "href": "https://evsexplore.semantics.cancer.gov/evsexplore/concept/ncit/C67152"
      },
      "assignedTerm": {
        "conceptId": "C49694",
        "value": "Planned Maximum Age of Subjects"
      },
      "role": "Qualifier",
      "relationship": {
        "subject": "TSPARM",
        "linkingPhrase": "decodes the value in",
        "predicateTerm": "DECODES",
        "object": "TSPARMCD"
      },
      "mandatoryVariable": false,
      "mandatoryValue": false
    },
    {
      "name": "TSVAL",
      "dataElementConceptId": "C83447",
      "isNonStandard": false,
      "role": "Qualifier",
      "relationship": {
        "subject": "TSVAL",
        "linkingPhrase": "is the value of the property identified by",
        "predicateTerm": "IS_VALUE_OF",
        "object": "TSPARMCD"
      },
      "mandatoryVariable": false,
      "mandatoryValue": false,
      "vlmTarget": true
    },
    {
      "name": "TSVCDREF",
      "dataElementConceptId": "C117460",
      "isNonStandard": false,
      "role": "Qualifier",
      "relationship": {
        "subject": "TSVCDREF",
        "linkingPhrase": "is the name of the reference terminology for",
        "predicateTerm": "IS_REFERENCE_TERMINOLOGY_FOR",
        "object": "TSVALCD"
      },
      "mandatoryVariable": false,
      "mandatoryValue": false,
      "vlmTarget": true
    }
  ]
}
