{
  "_links": {
    "parentBiomedicalConcept": {
      "href": "/mdr/bc/biomedicalconcepts/C102044",
      "title": "AIMS - Current Teeth/Dentures Problems",
      "type": "Biomedical Concept"
    },
    "parentPackage": {
      "href": "/mdr/specializations/sdtm/packages/2025-12-16/datasetspecializations",
      "title": "SDTM Dataset Specialization Package Effective 2025-12-16",
      "type": "SDTM Dataset Specialization Package"
    },
    "self": {
      "href": "/mdr/specializations/sdtm/datasetspecializations/AIMS0111",
      "title": "AIMS01-Current Problems Teeth/Dentures",
      "type": "SDTM Dataset Specialization"
    }
  },
  "datasetSpecializationId": "AIMS0111",
  "domain": "RS",
  "shortName": "AIMS01-Current Problems Teeth/Dentures",
  "source": "RS.RSTESTCD",
  "sdtmigStartVersion": "3-2",
  "sdtmigEndVersion": "",
  "variables": [
    {
      "name": "RSTESTCD",
      "isNonStandard": false,
      "codelist": {
        "conceptId": "C101805",
        "submissionValue": "AIMS01TC",
        "href": "https://evsexplore.semantics.cancer.gov/evsexplore/concept/ncit/C101805"
      },
      "assignedTerm": {
        "conceptId": "C102044",
        "value": "AIMS0111"
      },
      "role": "Topic",
      "relationship": {
        "subject": "RSTESTCD",
        "linkingPhrase": "is the code for the value in",
        "predicateTerm": "IS_DECODED_BY",
        "object": "RSTEST"
      },
      "mandatoryVariable": true,
      "mandatoryValue": true,
      "comparator": "EQ"
    },
    {
      "name": "RSTEST",
      "isNonStandard": false,
      "codelist": {
        "conceptId": "C101806",
        "submissionValue": "AIMS01TN",
        "href": "https://evsexplore.semantics.cancer.gov/evsexplore/concept/ncit/C101806"
      },
      "assignedTerm": {
        "conceptId": "C102044",
        "value": "AIMS01-Current Problems Teeth/Dentures"
      },
      "role": "Qualifier",
      "relationship": {
        "subject": "RSTEST",
        "linkingPhrase": "decodes the value in",
        "predicateTerm": "DECODES",
        "object": "RSTESTCD"
      },
      "mandatoryVariable": true,
      "mandatoryValue": true
    },
    {
      "name": "RSCAT",
      "dataElementConceptId": "C25372",
      "isNonStandard": false,
      "codelist": {
        "conceptId": "C118971",
        "submissionValue": "CCCAT",
        "href": "https://evsexplore.semantics.cancer.gov/evsexplore/concept/ncit/C118971"
      },
      "assignedTerm": {
        "conceptId": "C102111",
        "value": "AIMS"
      },
      "role": "Qualifier",
      "relationship": {
        "subject": "RSCAT",
        "linkingPhrase": "groups values in",
        "predicateTerm": "GROUPS",
        "object": "RSTESTCD"
      },
      "mandatoryVariable": true,
      "mandatoryValue": true,
      "comparator": "EQ"
    },
    {
      "name": "RSSCAT",
      "dataElementConceptId": "C25692",
      "isNonStandard": false,
      "assignedTerm": {
        "value": "DENTAL STATUS"
      },
      "role": "Qualifier",
      "relationship": {
        "subject": "RSSCAT",
        "linkingPhrase": "values are grouped by",
        "predicateTerm": "IS_GROUPED_BY",
        "object": "RSCAT"
      },
      "mandatoryVariable": true,
      "mandatoryValue": false,
      "comparator": "EQ"
    },
    {
      "name": "RSORRES",
      "dataElementConceptId": "C91106",
      "isNonStandard": false,
      "codelist": {
        "conceptId": "C182467",
        "submissionValue": "AIMS0111T12OR",
        "href": "https://evsexplore.semantics.cancer.gov/evsexplore/concept/ncit/C182467"
      },
      "role": "Qualifier",
      "dataType": "text",
      "length": 20,
      "relationship": {
        "subject": "RSORRES",
        "linkingPhrase": "is the result of the test in",
        "predicateTerm": "IS_RESULT_OF",
        "object": "RSTESTCD"
      },
      "mandatoryVariable": true,
      "mandatoryValue": false,
      "originType": "Collected",
      "originSource": "Investigator",
      "vlmTarget": true
    },
    {
      "name": "RSSTRESC",
      "dataElementConceptId": "C46126",
      "isNonStandard": false,
      "codelist": {
        "conceptId": "C182505",
        "submissionValue": "AIMS0111T12STR",
        "href": "https://evsexplore.semantics.cancer.gov/evsexplore/concept/ncit/C182505"
      },
      "role": "Qualifier",
      "dataType": "integer",
      "length": 1,
      "relationship": {
        "subject": "RSSTRESC",
        "linkingPhrase": "is the result of the test in",
        "predicateTerm": "IS_RESULT_OF",
        "object": "RSTESTCD"
      },
      "mandatoryVariable": true,
      "mandatoryValue": false,
      "originType": "Assigned",
      "originSource": "Sponsor",
      "vlmTarget": true
    },
    {
      "name": "RSSTRESN",
      "dataElementConceptId": "C46126",
      "isNonStandard": false,
      "codelist": {
        "conceptId": "C182505",
        "submissionValue": "AIMS0111T12STR",
        "href": "https://evsexplore.semantics.cancer.gov/evsexplore/concept/ncit/C182505"
      },
      "role": "Qualifier",
      "dataType": "integer",
      "length": 1,
      "relationship": {
        "subject": "RSSTRESN",
        "linkingPhrase": "is the result of the test in",
        "predicateTerm": "IS_RESULT_OF",
        "object": "RSTESTCD"
      },
      "mandatoryVariable": true,
      "mandatoryValue": false,
      "originType": "Assigned",
      "originSource": "Sponsor",
      "vlmTarget": true
    },
    {
      "name": "RSDTC",
      "dataElementConceptId": "C82515",
      "isNonStandard": false,
      "role": "Timing",
      "relationship": {
        "subject": "RSDTC",
        "linkingPhrase": "is the date of occurrence for",
        "predicateTerm": "IS_TIMING_FOR",
        "object": "RSTESTCD"
      },
      "mandatoryVariable": true,
      "mandatoryValue": false,
      "originType": "Collected",
      "originSource": "Investigator"
    }
  ]
}
