{
  "_links": {
    "parentBiomedicalConcept": {
      "href": "/mdr/bc/biomedicalconcepts/C181398",
      "title": "Allergen-induced IgE Antibody Measurement",
      "type": "Biomedical Concept"
    },
    "parentPackage": {
      "href": "/mdr/specializations/sdtm/packages/2025-12-16/datasetspecializations",
      "title": "SDTM Dataset Specialization Package Effective 2025-12-16",
      "type": "SDTM Dataset Specialization Package"
    },
    "self": {
      "href": "/mdr/specializations/sdtm/datasetspecializations/ARIGEABEPPRAST",
      "title": "Allergen-induced IgE Antibody for English Plantain Pollen Rast Score",
      "type": "SDTM Dataset Specialization"
    }
  },
  "datasetSpecializationId": "ARIGEABEPPRAST",
  "domain": "IS",
  "shortName": "Allergen-induced IgE Antibody for English Plantain Pollen Rast Score",
  "source": "IS.ISTESTCD",
  "sdtmigStartVersion": "3-4",
  "sdtmigEndVersion": "",
  "variables": [
    {
      "name": "ISTESTCD",
      "isNonStandard": false,
      "codelist": {
        "conceptId": "C120525",
        "submissionValue": "ISTESTCD",
        "href": "https://evsexplore.semantics.cancer.gov/evsexplore/concept/ncit/C120525"
      },
      "assignedTerm": {
        "conceptId": "C181398",
        "value": "ARIGEAB"
      },
      "role": "Topic",
      "relationship": {
        "subject": "ISTESTCD",
        "linkingPhrase": "is the code for the value in",
        "predicateTerm": "IS_DECODED_BY",
        "object": "ISTEST"
      },
      "mandatoryVariable": true,
      "mandatoryValue": true,
      "comparator": "EQ"
    },
    {
      "name": "ISTEST",
      "isNonStandard": false,
      "codelist": {
        "conceptId": "C120526",
        "submissionValue": "ISTEST",
        "href": "https://evsexplore.semantics.cancer.gov/evsexplore/concept/ncit/C120526"
      },
      "assignedTerm": {
        "conceptId": "C181398",
        "value": "Allergen-induced IgE Antibody"
      },
      "role": "Qualifier",
      "relationship": {
        "subject": "ISTEST",
        "linkingPhrase": "decodes the value in",
        "predicateTerm": "DECODES",
        "object": "ISTESTCD"
      },
      "mandatoryVariable": true,
      "mandatoryValue": true
    },
    {
      "name": "ISBDAGNT",
      "dataElementConceptId": "C42647",
      "isNonStandard": false,
      "codelist": {
        "conceptId": "C181169",
        "submissionValue": "ISBDAGT",
        "href": "https://evsexplore.semantics.cancer.gov/evsexplore/concept/ncit/C181169"
      },
      "assignedTerm": {
        "conceptId": "C189479",
        "value": "ENGLISH PLANTAIN POLLEN"
      },
      "role": "Qualifier",
      "relationship": {
        "subject": "ISBDAGNT",
        "linkingPhrase": "is the substance bound to the analyte in",
        "predicateTerm": "IS_ATTRIBUTE_FOR",
        "object": "ISTESTCD"
      },
      "mandatoryVariable": true,
      "mandatoryValue": false,
      "comparator": "EQ"
    },
    {
      "name": "ISTSTDTL",
      "isNonStandard": false,
      "codelist": {
        "conceptId": "C189267",
        "submissionValue": "ISFTSDTL",
        "href": "https://evsexplore.semantics.cancer.gov/evsexplore/concept/ncit/C189267"
      },
      "assignedTerm": {
        "conceptId": "C189493",
        "value": "RAST SCORE"
      },
      "role": "Qualifier",
      "relationship": {
        "subject": "ISTSTDTL",
        "linkingPhrase": "further describes the test in",
        "predicateTerm": "SPECIFIES",
        "object": "ISTESTCD"
      },
      "mandatoryVariable": false,
      "mandatoryValue": false,
      "comparator": "EQ"
    },
    {
      "name": "ISCAT",
      "dataElementConceptId": "C25372",
      "isNonStandard": false,
      "role": "Qualifier",
      "relationship": {
        "subject": "ISCAT",
        "linkingPhrase": "groups values in",
        "predicateTerm": "GROUPS",
        "object": "ISTESTCD"
      },
      "mandatoryVariable": false,
      "mandatoryValue": false
    },
    {
      "name": "ISSCAT",
      "dataElementConceptId": "C25692",
      "isNonStandard": false,
      "role": "Qualifier",
      "relationship": {
        "subject": "ISSCAT",
        "linkingPhrase": "values are grouped by",
        "predicateTerm": "IS_GROUPED_BY",
        "object": "ISCAT"
      },
      "mandatoryVariable": false,
      "mandatoryValue": false
    },
    {
      "name": "ISORRES",
      "dataElementConceptId": "C70856",
      "isNonStandard": false,
      "valueList": [
        "0 ABSENT OR UNDETECTABLE ALLERGEN SPECIFIC IGE",
        "1 LOW LEVEL OF ALLERGEN SPECIFIC IGE",
        "2 MODERATE LEVEL OF ALLERGEN SPECIFIC IGE",
        "3 HIGH LEVEL OF ALLERGEN SPECIFIC IGE",
        "4 VERY HIGH LEVEL OF ALLERGEN SPECIFIC IGE",
        "5 ULTRA HIGH LEVEL OF ALLERGEN SPECIFIC IGE",
        "6 EXTREMELY HIGH LEVEL OF ALLERGEN SPECIFIC IGE"
      ],
      "role": "Qualifier",
      "dataType": "text",
      "length": 1,
      "relationship": {
        "subject": "ISORRES",
        "linkingPhrase": "is the result of the test in",
        "predicateTerm": "IS_RESULT_OF",
        "object": "ISTESTCD"
      },
      "mandatoryVariable": true,
      "mandatoryValue": false,
      "originType": "Collected",
      "originSource": "Investigator",
      "vlmTarget": true
    },
    {
      "name": "ISSTRESC",
      "dataElementConceptId": "C46126",
      "isNonStandard": false,
      "valueList": [
        "0",
        "1",
        "2",
        "3",
        "4",
        "5",
        "6"
      ],
      "role": "Qualifier",
      "dataType": "integer",
      "length": 1,
      "relationship": {
        "subject": "ISSTRESC",
        "linkingPhrase": "is the result of the test in",
        "predicateTerm": "IS_RESULT_OF",
        "object": "ISTESTCD"
      },
      "mandatoryVariable": true,
      "mandatoryValue": false,
      "originType": "Collected",
      "originSource": "Investigator",
      "vlmTarget": true
    },
    {
      "name": "ISSTRESN",
      "dataElementConceptId": "C46126",
      "isNonStandard": false,
      "valueList": [
        "0",
        "1",
        "2",
        "3",
        "4",
        "5",
        "6"
      ],
      "role": "Qualifier",
      "dataType": "integer",
      "length": 1,
      "relationship": {
        "subject": "ISSTRESN",
        "linkingPhrase": "is the result of the test in",
        "predicateTerm": "IS_RESULT_OF",
        "object": "ISTESTCD"
      },
      "mandatoryVariable": true,
      "mandatoryValue": false,
      "originType": "Collected",
      "originSource": "Investigator",
      "vlmTarget": true
    },
    {
      "name": "ISSPEC",
      "dataElementConceptId": "C70713",
      "isNonStandard": false,
      "codelist": {
        "conceptId": "C78734",
        "submissionValue": "SPECTYPE",
        "href": "https://evsexplore.semantics.cancer.gov/evsexplore/concept/ncit/C78734"
      },
      "valueList": [
        "SERUM",
        "SERUM OR PLASMA",
        "BLOOD"
      ],
      "role": "Qualifier",
      "relationship": {
        "subject": "ISSPEC",
        "linkingPhrase": "is the specimen tested in",
        "predicateTerm": "IS_SPECIMEN_TESTED_IN",
        "object": "ISTESTCD"
      },
      "mandatoryVariable": false,
      "mandatoryValue": false,
      "comparator": "IN"
    },
    {
      "name": "ISMETHOD",
      "dataElementConceptId": "C82535",
      "isNonStandard": false,
      "codelist": {
        "conceptId": "C85492",
        "submissionValue": "METHOD",
        "href": "https://evsexplore.semantics.cancer.gov/evsexplore/concept/ncit/C85492"
      },
      "valueList": [
        "IMMUNOASSAY",
        "RIA"
      ],
      "role": "Qualifier",
      "relationship": {
        "subject": "ISMETHOD",
        "linkingPhrase": "is the method for the test in",
        "predicateTerm": "SPECIFIES",
        "object": "ISTESTCD"
      },
      "mandatoryVariable": false,
      "mandatoryValue": false,
      "comparator": "IN"
    },
    {
      "name": "ISDTC",
      "dataElementConceptId": "C82515",
      "isNonStandard": false,
      "role": "Timing",
      "relationship": {
        "subject": "ISDTC",
        "linkingPhrase": "is the date of occurrence for",
        "predicateTerm": "IS_TIMING_FOR",
        "object": "ISTESTCD"
      },
      "mandatoryVariable": true,
      "mandatoryValue": false,
      "originType": "Collected",
      "originSource": "Investigator"
    }
  ]
}
