{
  "_links": {
    "parentBiomedicalConcept": {
      "href": "/mdr/bc/biomedicalconcepts/C147844",
      "title": "ATLAS - Treatment With Antibiotics",
      "type": "Biomedical Concept"
    },
    "parentPackage": {
      "href": "/mdr/specializations/sdtm/packages/2025-12-16/datasetspecializations",
      "title": "SDTM Dataset Specialization Package Effective 2025-12-16",
      "type": "SDTM Dataset Specialization Package"
    },
    "self": {
      "href": "/mdr/specializations/sdtm/datasetspecializations/ATLAS102",
      "title": "ATLAS1-Treatment With Antibiotics",
      "type": "SDTM Dataset Specialization"
    }
  },
  "datasetSpecializationId": "ATLAS102",
  "domain": "RS",
  "shortName": "ATLAS1-Treatment With Antibiotics",
  "source": "RS.RSTESTCD",
  "sdtmigStartVersion": "3-2",
  "sdtmigEndVersion": "",
  "variables": [
    {
      "name": "RSTESTCD",
      "isNonStandard": false,
      "codelist": {
        "conceptId": "C147538",
        "submissionValue": "ATLAS1TC",
        "href": "https://evsexplore.semantics.cancer.gov/evsexplore/concept/ncit/C147538"
      },
      "assignedTerm": {
        "conceptId": "C147844",
        "value": "ATLAS102"
      },
      "role": "Topic",
      "relationship": {
        "subject": "RSTESTCD",
        "linkingPhrase": "is the code for the value in",
        "predicateTerm": "IS_DECODED_BY",
        "object": "RSTEST"
      },
      "mandatoryVariable": true,
      "mandatoryValue": true,
      "comparator": "EQ"
    },
    {
      "name": "RSTEST",
      "isNonStandard": false,
      "codelist": {
        "conceptId": "C147537",
        "submissionValue": "ATLAS1TN",
        "href": "https://evsexplore.semantics.cancer.gov/evsexplore/concept/ncit/C147537"
      },
      "assignedTerm": {
        "conceptId": "C147844",
        "value": "ATLAS1-Treatment With Antibiotics"
      },
      "role": "Qualifier",
      "relationship": {
        "subject": "RSTEST",
        "linkingPhrase": "decodes the value in",
        "predicateTerm": "DECODES",
        "object": "RSTESTCD"
      },
      "mandatoryVariable": true,
      "mandatoryValue": true
    },
    {
      "name": "RSCAT",
      "dataElementConceptId": "C25372",
      "isNonStandard": false,
      "codelist": {
        "conceptId": "C118971",
        "submissionValue": "CCCAT",
        "href": "https://evsexplore.semantics.cancer.gov/evsexplore/concept/ncit/C118971"
      },
      "assignedTerm": {
        "conceptId": "C147589",
        "value": "ATLAS"
      },
      "role": "Qualifier",
      "relationship": {
        "subject": "RSCAT",
        "linkingPhrase": "groups values in",
        "predicateTerm": "GROUPS",
        "object": "RSTESTCD"
      },
      "mandatoryVariable": true,
      "mandatoryValue": true,
      "comparator": "EQ"
    },
    {
      "name": "RSORRES",
      "dataElementConceptId": "C91106",
      "isNonStandard": false,
      "codelist": {
        "conceptId": "C182471",
        "submissionValue": "ATLAS102OR",
        "href": "https://evsexplore.semantics.cancer.gov/evsexplore/concept/ncit/C182471"
      },
      "role": "Qualifier",
      "dataType": "text",
      "length": 20,
      "relationship": {
        "subject": "RSORRES",
        "linkingPhrase": "is the result of the test in",
        "predicateTerm": "IS_RESULT_OF",
        "object": "RSTESTCD"
      },
      "mandatoryVariable": true,
      "mandatoryValue": false,
      "originType": "Collected",
      "originSource": "Investigator",
      "vlmTarget": true
    },
    {
      "name": "RSSTRESC",
      "dataElementConceptId": "C46126",
      "isNonStandard": false,
      "codelist": {
        "conceptId": "C182509",
        "submissionValue": "ATLAS102STR",
        "href": "https://evsexplore.semantics.cancer.gov/evsexplore/concept/ncit/C182509"
      },
      "role": "Qualifier",
      "dataType": "integer",
      "length": 1,
      "relationship": {
        "subject": "RSSTRESC",
        "linkingPhrase": "is the result of the test in",
        "predicateTerm": "IS_RESULT_OF",
        "object": "RSTESTCD"
      },
      "mandatoryVariable": true,
      "mandatoryValue": false,
      "originType": "Assigned",
      "originSource": "Sponsor",
      "vlmTarget": true
    },
    {
      "name": "RSSTRESN",
      "dataElementConceptId": "C46126",
      "isNonStandard": false,
      "codelist": {
        "conceptId": "C182509",
        "submissionValue": "ATLAS102STR",
        "href": "https://evsexplore.semantics.cancer.gov/evsexplore/concept/ncit/C182509"
      },
      "role": "Qualifier",
      "dataType": "integer",
      "length": 1,
      "relationship": {
        "subject": "RSSTRESN",
        "linkingPhrase": "is the result of the test in",
        "predicateTerm": "IS_RESULT_OF",
        "object": "RSTESTCD"
      },
      "mandatoryVariable": true,
      "mandatoryValue": false,
      "originType": "Assigned",
      "originSource": "Sponsor",
      "vlmTarget": true
    },
    {
      "name": "RSDTC",
      "dataElementConceptId": "C82515",
      "isNonStandard": false,
      "role": "Timing",
      "relationship": {
        "subject": "RSDTC",
        "linkingPhrase": "is the date of occurrence for",
        "predicateTerm": "IS_TIMING_FOR",
        "object": "RSTESTCD"
      },
      "mandatoryVariable": true,
      "mandatoryValue": false,
      "originType": "Collected",
      "originSource": "Investigator"
    }
  ]
}
