{
  "_links": {
    "parentBiomedicalConcept": {
      "href": "/mdr/bc/biomedicalconcepts/C139084",
      "title": "Carbon Monoxide Measurement",
      "type": "Biomedical Concept"
    },
    "parentPackage": {
      "href": "/mdr/specializations/sdtm/packages/2026-03-31/datasetspecializations",
      "title": "SDTM Dataset Specialization Package Effective 2026-03-31",
      "type": "SDTM Dataset Specialization Package"
    },
    "self": {
      "href": "/mdr/specializations/sdtm/datasetspecializations/CMONOXBLD",
      "title": "Carbon Monoxide Concentration in Blood",
      "type": "SDTM Dataset Specialization"
    }
  },
  "datasetSpecializationId": "CMONOXBLD",
  "domain": "LB",
  "shortName": "Carbon Monoxide Concentration in Blood",
  "source": "LB.LBTESTCD",
  "sdtmigStartVersion": "3-2",
  "sdtmigEndVersion": "",
  "variables": [
    {
      "name": "LBTESTCD",
      "isNonStandard": false,
      "codelist": {
        "conceptId": "C65047",
        "submissionValue": "LBTESTCD",
        "href": "https://evsexplore.semantics.cancer.gov/evsexplore/concept/ncit/C65047"
      },
      "assignedTerm": {
        "conceptId": "C139084",
        "value": "CMONOX"
      },
      "role": "Topic",
      "relationship": {
        "subject": "LBTESTCD",
        "linkingPhrase": "is the code for the value in",
        "predicateTerm": "IS_DECODED_BY",
        "object": "LBTEST"
      },
      "mandatoryVariable": true,
      "mandatoryValue": true,
      "comparator": "EQ"
    },
    {
      "name": "LBTEST",
      "isNonStandard": false,
      "codelist": {
        "conceptId": "C67154",
        "submissionValue": "LBTEST",
        "href": "https://evsexplore.semantics.cancer.gov/evsexplore/concept/ncit/C67154"
      },
      "assignedTerm": {
        "conceptId": "C139084",
        "value": "Carbon Monoxide"
      },
      "role": "Qualifier",
      "relationship": {
        "subject": "LBTEST",
        "linkingPhrase": "decodes the value in",
        "predicateTerm": "DECODES",
        "object": "LBTESTCD"
      },
      "mandatoryVariable": true,
      "mandatoryValue": true
    },
    {
      "name": "LBCAT",
      "isNonStandard": false,
      "assignedTerm": {
        "value": "CHEMISTRY"
      },
      "role": "Qualifier",
      "relationship": {
        "subject": "LBCAT",
        "linkingPhrase": "groups values in",
        "predicateTerm": "GROUPS",
        "object": "LBTESTCD"
      },
      "mandatoryVariable": true,
      "mandatoryValue": false
    },
    {
      "name": "LBORRES",
      "dataElementConceptId": "C70856",
      "isNonStandard": false,
      "role": "Qualifier",
      "dataType": "float",
      "length": 12,
      "format": "12.4",
      "significantDigits": 4,
      "relationship": {
        "subject": "LBORRES",
        "linkingPhrase": "is the result of the test in",
        "predicateTerm": "IS_RESULT_OF",
        "object": "LBTESTCD"
      },
      "mandatoryVariable": true,
      "mandatoryValue": false,
      "originType": "Collected",
      "vlmTarget": true
    },
    {
      "name": "LBORRESU",
      "dataElementConceptId": "C48207",
      "isNonStandard": false,
      "codelist": {
        "conceptId": "C71620",
        "submissionValue": "UNIT",
        "href": "https://evsexplore.semantics.cancer.gov/evsexplore/concept/ncit/C71620"
      },
      "valueList": [
        "mEq/L",
        "mEq/dL",
        "mmol/L"
      ],
      "role": "Qualifier",
      "relationship": {
        "subject": "LBORRESU",
        "linkingPhrase": "is the unit for the value in",
        "predicateTerm": "IS_UNIT_FOR",
        "object": "LBORRES"
      },
      "mandatoryVariable": true,
      "mandatoryValue": false,
      "vlmTarget": true
    },
    {
      "name": "LBSTRESC",
      "dataElementConceptId": "C70856",
      "isNonStandard": false,
      "role": "Qualifier",
      "dataType": "float",
      "length": 12,
      "format": "12.4",
      "significantDigits": 4,
      "relationship": {
        "subject": "LBSTRESC",
        "linkingPhrase": "is the result of the test in",
        "predicateTerm": "IS_RESULT_OF",
        "object": "LBTESTCD"
      },
      "mandatoryVariable": true,
      "mandatoryValue": false,
      "originType": "Collected",
      "vlmTarget": true
    },
    {
      "name": "LBSTRESN",
      "dataElementConceptId": "C70856",
      "isNonStandard": false,
      "role": "Qualifier",
      "dataType": "float",
      "length": 12,
      "format": "12.4",
      "significantDigits": 4,
      "relationship": {
        "subject": "LBSTRESN",
        "linkingPhrase": "is the result of the test in",
        "predicateTerm": "IS_RESULT_OF",
        "object": "LBTESTCD"
      },
      "mandatoryVariable": true,
      "mandatoryValue": false,
      "originType": "Collected",
      "vlmTarget": true
    },
    {
      "name": "LBSTRESU",
      "dataElementConceptId": "C48207",
      "isNonStandard": false,
      "codelist": {
        "conceptId": "C71620",
        "submissionValue": "UNIT",
        "href": "https://evsexplore.semantics.cancer.gov/evsexplore/concept/ncit/C71620"
      },
      "assignedTerm": {
        "conceptId": "C64387",
        "value": "mmol/L"
      },
      "role": "Qualifier",
      "relationship": {
        "subject": "LBSTRESU",
        "linkingPhrase": "is the unit for the value in",
        "predicateTerm": "IS_UNIT_FOR",
        "object": "LBSTRESN"
      },
      "mandatoryVariable": true,
      "mandatoryValue": false,
      "vlmTarget": true
    },
    {
      "name": "LBLOINC",
      "isNonStandard": false,
      "assignedTerm": {
        "value": "99387-3"
      },
      "role": "Qualifier",
      "relationship": {
        "subject": "LBLOINC",
        "linkingPhrase": "identifies an observation described by",
        "predicateTerm": "IDENTIFIES_OBSERVATION",
        "object": "LBTESTCD"
      },
      "mandatoryVariable": false,
      "mandatoryValue": false
    },
    {
      "name": "LBSPEC",
      "dataElementConceptId": "C70713",
      "isNonStandard": false,
      "codelist": {
        "conceptId": "C78734",
        "submissionValue": "SPECTYPE",
        "href": "https://evsexplore.semantics.cancer.gov/evsexplore/concept/ncit/C78734"
      },
      "assignedTerm": {
        "conceptId": "C12434",
        "value": "BLOOD"
      },
      "role": "Qualifier",
      "relationship": {
        "subject": "LBSPEC",
        "linkingPhrase": "is the specimen tested in",
        "predicateTerm": "IS_SPECIMEN_TESTED_IN",
        "object": "LBTESTCD"
      },
      "mandatoryVariable": true,
      "mandatoryValue": false,
      "comparator": "EQ"
    },
    {
      "name": "LBDTC",
      "dataElementConceptId": "C82515",
      "isNonStandard": false,
      "role": "Timing",
      "relationship": {
        "subject": "LBDTC",
        "linkingPhrase": "is the date of occurrence for",
        "predicateTerm": "IS_TIMING_FOR",
        "object": "LBTESTCD"
      },
      "mandatoryVariable": true,
      "mandatoryValue": false
    }
  ]
}
