{
  "_links": {
    "parentBiomedicalConcept": {
      "href": "/mdr/bc/biomedicalconcepts/C64546",
      "title": "Color Assessment",
      "type": "Biomedical Concept"
    },
    "parentPackage": {
      "href": "/mdr/specializations/sdtm/packages/2025-12-16/datasetspecializations",
      "title": "SDTM Dataset Specialization Package Effective 2025-12-16",
      "type": "SDTM Dataset Specialization Package"
    },
    "self": {
      "href": "/mdr/specializations/sdtm/datasetspecializations/COLORURSYS",
      "title": "Color Assessment in Urinary System Findings",
      "type": "SDTM Dataset Specialization"
    }
  },
  "datasetSpecializationId": "COLORURSYS",
  "domain": "UR",
  "shortName": "Color Assessment in Urinary System Findings",
  "source": "UR.URTESTCD",
  "sdtmigStartVersion": "3-2",
  "sdtmigEndVersion": "",
  "variables": [
    {
      "name": "URTESTCD",
      "isNonStandard": false,
      "codelist": {
        "conceptId": "C129942",
        "submissionValue": "URNSTSCD",
        "href": "https://evsexplore.semantics.cancer.gov/evsexplore/concept/ncit/C129942"
      },
      "assignedTerm": {
        "conceptId": "C64546",
        "value": "COLOR"
      },
      "role": "Topic",
      "relationship": {
        "subject": "URTESTCD",
        "linkingPhrase": "is the code for the value in",
        "predicateTerm": "IS_DECODED_BY",
        "object": "URTEST"
      },
      "mandatoryVariable": true,
      "mandatoryValue": true,
      "comparator": "EQ"
    },
    {
      "name": "URTEST",
      "isNonStandard": false,
      "codelist": {
        "conceptId": "C129941",
        "submissionValue": "URNSTS",
        "href": "https://evsexplore.semantics.cancer.gov/evsexplore/concept/ncit/C129941"
      },
      "assignedTerm": {
        "conceptId": "C64546",
        "value": "Color"
      },
      "role": "Qualifier",
      "relationship": {
        "subject": "URTEST",
        "linkingPhrase": "decodes the value in",
        "predicateTerm": "DECODES",
        "object": "URTESTCD"
      },
      "mandatoryVariable": true,
      "mandatoryValue": true
    },
    {
      "name": "URCAT",
      "isNonStandard": false,
      "role": "Qualifier",
      "relationship": {
        "subject": "URCAT",
        "linkingPhrase": "groups values in",
        "predicateTerm": "GROUPS",
        "object": "URTESTCD"
      },
      "mandatoryVariable": true,
      "mandatoryValue": false
    },
    {
      "name": "URORRES",
      "dataElementConceptId": "C70856",
      "isNonStandard": false,
      "role": "Qualifier",
      "dataType": "text",
      "length": 2,
      "relationship": {
        "subject": "URORRES",
        "linkingPhrase": "is the result of the test in",
        "predicateTerm": "IS_RESULT_OF",
        "object": "URTESTCD"
      },
      "mandatoryVariable": true,
      "mandatoryValue": false,
      "originType": "Collected",
      "originSource": "Investigator",
      "vlmTarget": true
    },
    {
      "name": "URSTRESC",
      "dataElementConceptId": "C70856",
      "isNonStandard": false,
      "role": "Qualifier",
      "dataType": "text",
      "length": 2,
      "relationship": {
        "subject": "URSTRESC",
        "linkingPhrase": "is the result of the test in",
        "predicateTerm": "IS_RESULT_OF",
        "object": "URTESTCD"
      },
      "mandatoryVariable": true,
      "mandatoryValue": false,
      "originType": "Collected",
      "originSource": "Investigator",
      "vlmTarget": true
    },
    {
      "name": "URSPEC",
      "dataElementConceptId": "C70713",
      "isNonStandard": false,
      "assignedTerm": {
        "conceptId": "C13283",
        "value": "URINE"
      },
      "role": "Qualifier",
      "relationship": {
        "subject": "URSPEC",
        "linkingPhrase": "is the specimen tested in",
        "predicateTerm": "IS_SPECIMEN_TESTED_IN",
        "object": "URTESTCD"
      },
      "mandatoryVariable": true,
      "mandatoryValue": false,
      "comparator": "EQ"
    },
    {
      "name": "URMETHOD",
      "dataElementConceptId": "C82535",
      "isNonStandard": false,
      "codelist": {
        "conceptId": "C85492",
        "submissionValue": "METHOD",
        "href": "https://evsexplore.semantics.cancer.gov/evsexplore/concept/ncit/C85492"
      },
      "role": "Qualifier",
      "relationship": {
        "subject": "URMETHOD",
        "linkingPhrase": "is the method for the test in",
        "predicateTerm": "SPECIFIES",
        "object": "URTESTCD"
      },
      "mandatoryVariable": false,
      "mandatoryValue": false
    },
    {
      "name": "URDTC",
      "dataElementConceptId": "C82515",
      "isNonStandard": false,
      "role": "Timing",
      "relationship": {
        "subject": "URDTC",
        "linkingPhrase": "is the date of occurrence for",
        "predicateTerm": "IS_TIMING_FOR",
        "object": "URTESTCD"
      },
      "mandatoryVariable": false,
      "mandatoryValue": false,
      "originType": "Collected",
      "originSource": "Investigator"
    }
  ]
}
