{
  "_links": {
    "parentBiomedicalConcept": {
      "href": "/mdr/bc/biomedicalconcepts/C82621",
      "title": "D-Dimer Measurement",
      "type": "Biomedical Concept"
    },
    "parentPackage": {
      "href": "/mdr/specializations/sdtm/packages/2025-12-16/datasetspecializations",
      "title": "SDTM Dataset Specialization Package Effective 2025-12-16",
      "type": "SDTM Dataset Specialization Package"
    },
    "self": {
      "href": "/mdr/specializations/sdtm/datasetspecializations/DDIMERPPP",
      "title": "D-Dimer in Platelet Poor Plasma",
      "type": "SDTM Dataset Specialization"
    }
  },
  "datasetSpecializationId": "DDIMERPPP",
  "domain": "LB",
  "shortName": "D-Dimer in Platelet Poor Plasma",
  "source": "LB.LBTESTCD",
  "sdtmigStartVersion": "3-2",
  "sdtmigEndVersion": "",
  "variables": [
    {
      "name": "LBTESTCD",
      "isNonStandard": false,
      "codelist": {
        "conceptId": "C65047",
        "submissionValue": "LBTESTCD",
        "href": "https://evsexplore.semantics.cancer.gov/evsexplore/concept/ncit/C65047"
      },
      "assignedTerm": {
        "conceptId": "C82621",
        "value": "DDIMER"
      },
      "role": "Topic",
      "relationship": {
        "subject": "LBTESTCD",
        "linkingPhrase": "is the code for the value in",
        "predicateTerm": "IS_DECODED_BY",
        "object": "LBTEST"
      },
      "mandatoryVariable": true,
      "mandatoryValue": true,
      "comparator": "EQ"
    },
    {
      "name": "LBTEST",
      "isNonStandard": false,
      "codelist": {
        "conceptId": "C67154",
        "submissionValue": "LBTEST",
        "href": "https://evsexplore.semantics.cancer.gov/evsexplore/concept/ncit/C67154"
      },
      "assignedTerm": {
        "conceptId": "C82621",
        "value": "D-Dimer"
      },
      "role": "Qualifier",
      "relationship": {
        "subject": "LBTEST",
        "linkingPhrase": "decodes the value in",
        "predicateTerm": "DECODES",
        "object": "LBTESTCD"
      },
      "mandatoryVariable": true,
      "mandatoryValue": true
    },
    {
      "name": "LBCAT",
      "isNonStandard": false,
      "assignedTerm": {
        "value": "CHEMISTRY"
      },
      "role": "Qualifier",
      "relationship": {
        "subject": "LBCAT",
        "linkingPhrase": "groups values in",
        "predicateTerm": "GROUPS",
        "object": "LBTESTCD"
      },
      "mandatoryVariable": true,
      "mandatoryValue": false
    },
    {
      "name": "LBORRES",
      "dataElementConceptId": "C70856",
      "isNonStandard": false,
      "role": "Qualifier",
      "dataType": "float",
      "length": 12,
      "format": "12.4",
      "significantDigits": 4,
      "relationship": {
        "subject": "LBORRES",
        "linkingPhrase": "is the result of the test in",
        "predicateTerm": "IS_RESULT_OF",
        "object": "LBTESTCD"
      },
      "mandatoryVariable": true,
      "mandatoryValue": false,
      "originType": "Collected",
      "originSource": "Vendor",
      "vlmTarget": true
    },
    {
      "name": "LBORRESU",
      "dataElementConceptId": "C64571",
      "isNonStandard": false,
      "codelist": {
        "conceptId": "C71620",
        "submissionValue": "UNIT",
        "href": "https://evsexplore.semantics.cancer.gov/evsexplore/concept/ncit/C71620"
      },
      "valueList": [
        "ug/L DDU",
        "ug/L FEU",
        "mg/L FEU"
      ],
      "role": "Qualifier",
      "relationship": {
        "subject": "LBORRESU",
        "linkingPhrase": "is the unit for the value in",
        "predicateTerm": "IS_UNIT_FOR",
        "object": "LBORRES"
      },
      "mandatoryVariable": true,
      "mandatoryValue": false,
      "vlmTarget": true
    },
    {
      "name": "LBSTRESC",
      "dataElementConceptId": "C70856",
      "isNonStandard": false,
      "role": "Qualifier",
      "dataType": "float",
      "length": 12,
      "format": "12.4",
      "significantDigits": 4,
      "relationship": {
        "subject": "LBSTRESC",
        "linkingPhrase": "is the result of the test in",
        "predicateTerm": "IS_RESULT_OF",
        "object": "LBTESTCD"
      },
      "mandatoryVariable": true,
      "mandatoryValue": false,
      "originType": "Collected",
      "originSource": "Vendor",
      "vlmTarget": true
    },
    {
      "name": "LBSTRESN",
      "dataElementConceptId": "C70856",
      "isNonStandard": false,
      "role": "Qualifier",
      "dataType": "float",
      "length": 12,
      "format": "12.4",
      "significantDigits": 4,
      "relationship": {
        "subject": "LBSTRESN",
        "linkingPhrase": "is the result of the test in",
        "predicateTerm": "IS_RESULT_OF",
        "object": "LBTESTCD"
      },
      "mandatoryVariable": true,
      "mandatoryValue": false,
      "originType": "Collected",
      "originSource": "Vendor",
      "vlmTarget": true
    },
    {
      "name": "LBSTRESU",
      "dataElementConceptId": "C64571",
      "isNonStandard": false,
      "codelist": {
        "conceptId": "C71620",
        "submissionValue": "UNIT",
        "href": "https://evsexplore.semantics.cancer.gov/evsexplore/concept/ncit/C71620"
      },
      "valueList": [
        "ug/L DDU",
        "ug/L FEU"
      ],
      "role": "Qualifier",
      "relationship": {
        "subject": "LBSTRESU",
        "linkingPhrase": "is the unit for the value in",
        "predicateTerm": "IS_UNIT_FOR",
        "object": "LBSTRESN"
      },
      "mandatoryVariable": true,
      "mandatoryValue": false,
      "vlmTarget": true
    },
    {
      "name": "LBLOINC",
      "isNonStandard": false,
      "valueList": [
        "48058-2",
        "48067-3"
      ],
      "role": "Qualifier",
      "relationship": {
        "subject": "LBLOINC",
        "linkingPhrase": "identifies an observation described by",
        "predicateTerm": "IDENTIFIES_OBSERVATION",
        "object": "LBTESTCD"
      },
      "mandatoryVariable": false,
      "mandatoryValue": false
    },
    {
      "name": "LBSPEC",
      "dataElementConceptId": "C70713",
      "isNonStandard": false,
      "codelist": {
        "conceptId": "C78734",
        "submissionValue": "SPECTYPE",
        "href": "https://evsexplore.semantics.cancer.gov/evsexplore/concept/ncit/C78734"
      },
      "assignedTerm": {
        "conceptId": "C106556",
        "value": "PLATELET POOR PLASMA"
      },
      "role": "Qualifier",
      "relationship": {
        "subject": "LBSPEC",
        "linkingPhrase": "is the specimen tested in",
        "predicateTerm": "IS_SPECIMEN_TESTED_IN",
        "object": "LBTESTCD"
      },
      "mandatoryVariable": true,
      "mandatoryValue": false,
      "comparator": "EQ"
    },
    {
      "name": "LBFAST",
      "dataElementConceptId": "C93566",
      "isNonStandard": false,
      "codelist": {
        "conceptId": "C66742",
        "submissionValue": "NY",
        "href": "https://evsexplore.semantics.cancer.gov/evsexplore/concept/ncit/C66742"
      },
      "subsetCodelist": "NY_NY",
      "valueList": [
        "N",
        "Y"
      ],
      "role": "Qualifier",
      "relationship": {
        "subject": "LBFAST",
        "linkingPhrase": "is the subject's fasting status during the performance of the test in",
        "predicateTerm": "IS_SUBJECT_STATE_FOR",
        "object": "LBTESTCD"
      },
      "mandatoryVariable": false,
      "mandatoryValue": false
    },
    {
      "name": "LBDTC",
      "dataElementConceptId": "C82515",
      "isNonStandard": false,
      "role": "Timing",
      "relationship": {
        "subject": "LBDTC",
        "linkingPhrase": "is the date of occurrence for",
        "predicateTerm": "IS_TIMING_FOR",
        "object": "LBTESTCD"
      },
      "mandatoryVariable": true,
      "mandatoryValue": false
    }
  ]
}
