{
  "_links": {
    "parentBiomedicalConcept": {
      "href": "/mdr/bc/biomedicalconcepts/C224899",
      "title": "Study Treatment Disposition",
      "type": "Biomedical Concept"
    },
    "parentPackage": {
      "href": "/mdr/specializations/sdtm/packages/2026-03-31/datasetspecializations",
      "title": "SDTM Dataset Specialization Package Effective 2026-03-31",
      "type": "SDTM Dataset Specialization Package"
    },
    "self": {
      "href": "/mdr/specializations/sdtm/datasetspecializations/DSSTUDYTREATMENT",
      "title": "Study Treatment Disposition",
      "type": "SDTM Dataset Specialization"
    }
  },
  "datasetSpecializationId": "DSSTUDYTREATMENT",
  "domain": "DS",
  "shortName": "Study Treatment Disposition",
  "source": "DS.DECODE",
  "sdtmigStartVersion": "3-2",
  "sdtmigEndVersion": "",
  "variables": [
    {
      "name": "DSCAT",
      "dataElementConceptId": "C25372",
      "isNonStandard": false,
      "codelist": {
        "conceptId": "C74558",
        "submissionValue": "DSCAT",
        "href": "https://evsexplore.semantics.cancer.gov/evsexplore/concept/ncit/C74558"
      },
      "assignedTerm": {
        "conceptId": "C74590",
        "value": "DISPOSITION EVENT"
      },
      "role": "Qualifier",
      "dataType": "text",
      "length": 20,
      "relationship": {
        "subject": "DSCAT",
        "linkingPhrase": "groups values in",
        "predicateTerm": "GROUPS",
        "object": "DSTERM"
      },
      "mandatoryVariable": true,
      "mandatoryValue": true,
      "originType": "Assigned",
      "originSource": "Sponsor"
    },
    {
      "name": "DSSCAT",
      "dataElementConceptId": "C25692",
      "isNonStandard": false,
      "codelist": {
        "conceptId": "C170443",
        "submissionValue": "DSSCAT",
        "href": "https://evsexplore.semantics.cancer.gov/evsexplore/concept/ncit/C170443"
      },
      "assignedTerm": {
        "conceptId": "C170570",
        "value": "STUDY TREATMENT"
      },
      "role": "Qualifier",
      "dataType": "text",
      "length": 20,
      "relationship": {
        "subject": "DSSCAT",
        "linkingPhrase": "groups values in",
        "predicateTerm": "GROUPS",
        "object": "DSTERM"
      },
      "mandatoryVariable": true,
      "mandatoryValue": false,
      "originType": "Assigned",
      "originSource": "Sponsor"
    },
    {
      "name": "DSDECOD",
      "dataElementConceptId": "C25638",
      "isNonStandard": false,
      "codelist": {
        "conceptId": "C66727",
        "submissionValue": "NCOMPLT",
        "href": "https://evsexplore.semantics.cancer.gov/evsexplore/concept/ncit/C66727"
      },
      "subsetCodelist": "NCOMPLT_STUDYTREATMENT",
      "valueList": [
        "ADVERSE EVENT",
        "APPROVED DRUG AVAILABLE FOR INDICATION",
        "COMPLETED",
        "DEATH",
        "DISEASE RELAPSE",
        "FAILURE TO MEET CONTINUATION CRITERIA",
        "INVESTIGATOR DECISION",
        "LACK OF EFFICACY",
        "LOGISTICS PROBLEM",
        "LOST TO FOLLOW-UP",
        "NO LONGER CLINICALLY BENEFITING",
        "NON-COMPLIANCE",
        "NON-COMPLIANCE WITH NON-STUDY DEVICE",
        "NON-COMPLIANCE WITH STUDY DEVICE",
        "NON-COMPLIANCE WITH STUDY DRUG",
        "NON-COMPLIANCE WITH STUDY SCHEDULE",
        "PARTNER PREGNANCY",
        "PHYSICIAN DECISION",
        "PREGNANCY",
        "PROGRESSIVE DISEASE",
        "PROTOCOL DEVIATION",
        "PROTOCOL VIOLATION",
        "PROTOCOL-SPECIFIED WITHDRAWAL CRITERION MET",
        "RANDOMIZED BY MISTAKE",
        "RANDOMIZED BY MISTAKE WITH STUDY TREATMENT",
        "RECOVERY",
        "REQUIRES PROHIBITED MEDICATION",
        "REQUIRES PROHIBITED PROCEDURE",
        "SERIOUS ADVERSE EVENT",
        "SITE TERMINATED BY SPONSOR",
        "SPONSOR REQUEST",
        "STUDY TERMINATED BY SPONSOR",
        "TECHNICAL PROBLEMS",
        "UNDERWENT PROHIBITED PROCEDURE",
        "USED PROHIBITED MEDICATION",
        "WITHDRAWAL BY PARENT/GUARDIAN",
        "WITHDRAWAL BY SUBJECT",
        "WITHDRAWAL OF ASSENT",
        "WITHDRAWAL OF CONSENT"
      ],
      "role": "Qualifier",
      "dataType": "text",
      "length": 200,
      "relationship": {
        "subject": "DSDECOD",
        "linkingPhrase": "is a dictionary-derived term for the value in",
        "predicateTerm": "IS_DERIVED_FROM",
        "object": "DSTERM"
      },
      "mandatoryVariable": true,
      "mandatoryValue": true,
      "originType": "Assigned",
      "originSource": "Sponsor"
    },
    {
      "name": "DSTERM",
      "dataElementConceptId": "C25638",
      "isNonStandard": false,
      "role": "Topic",
      "dataType": "text",
      "length": 200,
      "relationship": {
        "subject": "DSTERM",
        "linkingPhrase": "is original text for",
        "predicateTerm": "IS_ORIGINAL_TEXT_FOR",
        "object": "DSDECOD"
      },
      "mandatoryVariable": true,
      "mandatoryValue": true,
      "originType": "Collected",
      "originSource": "Investigator"
    },
    {
      "name": "DSSTDTC",
      "dataElementConceptId": "C82517",
      "isNonStandard": false,
      "role": "Timing",
      "dataType": "datetime",
      "relationship": {
        "subject": "DSSTDTC",
        "linkingPhrase": "is the start date for",
        "predicateTerm": "IS_TIMING_FOR",
        "object": "DSTERM"
      },
      "mandatoryVariable": true,
      "mandatoryValue": true,
      "originType": "Collected",
      "originSource": "Investigator"
    }
  ]
}
