{
  "_links": {
    "parentBiomedicalConcept": {
      "href": "/mdr/bc/biomedicalconcepts/C122393",
      "title": "Number of Years of Education",
      "type": "Biomedical Concept"
    },
    "parentPackage": {
      "href": "/mdr/specializations/sdtm/packages/2025-09-23/datasetspecializations",
      "title": "SDTM Dataset Specialization Package Effective 2025-09-23",
      "type": "SDTM Dataset Specialization Package"
    },
    "self": {
      "href": "/mdr/specializations/sdtm/datasetspecializations/EDUYRNUM",
      "title": "Number of Years of Education",
      "type": "SDTM Dataset Specialization"
    }
  },
  "datasetSpecializationId": "EDUYRNUM",
  "domain": "SC",
  "shortName": "Number of Years of Education",
  "source": "SC.SCTESTCD",
  "sdtmigStartVersion": "3-2",
  "sdtmigEndVersion": "",
  "variables": [
    {
      "name": "SCTESTCD",
      "isNonStandard": false,
      "codelist": {
        "conceptId": "C74559",
        "submissionValue": "SCTESTCD",
        "href": "https://evsexplore.semantics.cancer.gov/evsexplore/concept/ncit/C74559"
      },
      "assignedTerm": {
        "conceptId": "C122393",
        "value": "EDUYRNUM"
      },
      "role": "Topic",
      "relationship": {
        "subject": "SCTESTCD",
        "linkingPhrase": "is the code for the value in",
        "predicateTerm": "IS_DECODED_BY",
        "object": "SCTEST"
      },
      "mandatoryVariable": true,
      "mandatoryValue": false,
      "comparator": "EQ"
    },
    {
      "name": "SCTEST",
      "isNonStandard": false,
      "codelist": {
        "conceptId": "C103330",
        "submissionValue": "SCTEST",
        "href": "https://evsexplore.semantics.cancer.gov/evsexplore/concept/ncit/C103330"
      },
      "role": "Qualifier",
      "relationship": {
        "subject": "SCTEST",
        "linkingPhrase": "decodes the value in",
        "predicateTerm": "DECODES",
        "object": "SCTESTCD"
      },
      "mandatoryVariable": true,
      "mandatoryValue": false
    },
    {
      "name": "SCCAT",
      "isNonStandard": false,
      "role": "Qualifier",
      "relationship": {
        "subject": "SCCAT",
        "linkingPhrase": "groups values in",
        "predicateTerm": "GROUPS",
        "object": "SCTESTCD"
      },
      "mandatoryVariable": false,
      "mandatoryValue": false
    },
    {
      "name": "SCORRES",
      "dataElementConceptId": "C70856",
      "isNonStandard": false,
      "role": "Qualifier",
      "dataType": "float",
      "length": 4,
      "format": "3.1",
      "significantDigits": 1,
      "relationship": {
        "subject": "SCORRES",
        "linkingPhrase": "is the result of the test in",
        "predicateTerm": "IS_RESULT_OF",
        "object": "SCTESTCD"
      },
      "mandatoryVariable": false,
      "mandatoryValue": false,
      "originType": "Collected",
      "originSource": "Investigator",
      "vlmTarget": true
    },
    {
      "name": "SCORRESU",
      "dataElementConceptId": "C42574",
      "isNonStandard": false,
      "codelist": {
        "conceptId": "C71620",
        "submissionValue": "UNIT",
        "href": "https://evsexplore.semantics.cancer.gov/evsexplore/concept/ncit/C71620"
      },
      "valueList": [
        "C29848"
      ],
      "role": "Qualifier",
      "relationship": {
        "subject": "SCORRESU",
        "linkingPhrase": "is the unit for the value in",
        "predicateTerm": "IS_UNIT_FOR",
        "object": "SCORRES"
      },
      "mandatoryVariable": false,
      "mandatoryValue": false,
      "vlmTarget": true
    },
    {
      "name": "SCSTRESC",
      "dataElementConceptId": "C70856",
      "isNonStandard": false,
      "role": "Qualifier",
      "dataType": "float",
      "length": 4,
      "format": "3.1",
      "significantDigits": 1,
      "relationship": {
        "subject": "SCSTRESC",
        "linkingPhrase": "is the result of the test in",
        "predicateTerm": "IS_RESULT_OF",
        "object": "SCTESTCD"
      },
      "mandatoryVariable": false,
      "mandatoryValue": false,
      "originType": "Assigned",
      "originSource": "Sponsor",
      "vlmTarget": true
    },
    {
      "name": "SCSTRESN",
      "dataElementConceptId": "C70856",
      "isNonStandard": false,
      "role": "Qualifier",
      "dataType": "float",
      "length": 4,
      "format": "3.1",
      "significantDigits": 1,
      "relationship": {
        "subject": "SCSTRESN",
        "linkingPhrase": "is the result of the test in",
        "predicateTerm": "IS_RESULT_OF",
        "object": "SCTESTCD"
      },
      "mandatoryVariable": false,
      "mandatoryValue": false,
      "originType": "Assigned",
      "originSource": "Sponsor",
      "vlmTarget": true
    },
    {
      "name": "SCSTRESU",
      "dataElementConceptId": "C42574",
      "isNonStandard": false,
      "codelist": {
        "conceptId": "C71620",
        "submissionValue": "UNIT",
        "href": "https://evsexplore.semantics.cancer.gov/evsexplore/concept/ncit/C71620"
      },
      "valueList": [
        "C29848"
      ],
      "role": "Qualifier",
      "relationship": {
        "subject": "SCSTRESU",
        "linkingPhrase": "is the unit for the value in",
        "predicateTerm": "IS_UNIT_FOR",
        "object": "SCSTRESN"
      },
      "mandatoryVariable": false,
      "mandatoryValue": false,
      "vlmTarget": true
    },
    {
      "name": "SCDTC",
      "dataElementConceptId": "C82515",
      "isNonStandard": false,
      "role": "Timing",
      "relationship": {
        "subject": "SCDTC",
        "linkingPhrase": "is the date of occurrence for",
        "predicateTerm": "IS_TIMING_FOR",
        "object": "SCTESTCD"
      },
      "mandatoryVariable": true,
      "mandatoryValue": false
    }
  ]
}
