{
  "_links": {
    "parentBiomedicalConcept": {
      "href": "/mdr/bc/biomedicalconcepts/C132447",
      "title": "Eligibility Criteria Met By Subject",
      "type": "Biomedical Concept"
    },
    "parentPackage": {
      "href": "/mdr/specializations/sdtm/packages/2023-12-12/datasetspecializations",
      "title": "SDTM Dataset Specialization Package Effective 2023-12-12",
      "type": "SDTM Dataset Specialization Package"
    },
    "self": {
      "href": "/mdr/specializations/sdtm/datasetspecializations/ELIGMET",
      "title": "Eligibility Criteria Met",
      "type": "SDTM Dataset Specialization"
    }
  },
  "datasetSpecializationId": "ELIGMET",
  "domain": "DS",
  "shortName": "Eligibility Criteria Met",
  "source": "DS.DECODE",
  "sdtmigStartVersion": "3-2",
  "sdtmigEndVersion": "",
  "variables": [
    {
      "name": "DSCAT",
      "dataElementConceptId": "C25372",
      "isNonStandard": false,
      "codelist": {
        "conceptId": "C74558",
        "submissionValue": "DSCAT",
        "href": "https://evsexplore.semantics.cancer.gov/evsexplore/concept/ncit/C74558"
      },
      "assignedTerm": {
        "conceptId": "C74588",
        "value": "PROTOCOL MILESTONE"
      },
      "role": "Qualifier",
      "dataType": "text",
      "length": 200,
      "relationship": {
        "subject": "DSCAT",
        "linkingPhrase": "groups values in",
        "predicateTerm": "GROUPS",
        "object": "DSTERM"
      },
      "mandatoryVariable": true,
      "mandatoryValue": false,
      "originType": "Assigned",
      "originSource": "Sponsor"
    },
    {
      "name": "DSDECOD",
      "dataElementConceptId": "C82977",
      "isNonStandard": false,
      "codelist": {
        "conceptId": "C114118",
        "submissionValue": "PROTMLST",
        "href": "https://evsexplore.semantics.cancer.gov/evsexplore/concept/ncit/C114118"
      },
      "assignedTerm": {
        "conceptId": "C132447",
        "value": "ELIGIBILITY CRITERIA MET"
      },
      "role": "Qualifier",
      "dataType": "text",
      "length": 200,
      "relationship": {
        "subject": "DSDECOD",
        "linkingPhrase": "is a dictionary-derived term for the value in",
        "predicateTerm": "IS_DERIVED_FROM",
        "object": "DSTERM"
      },
      "mandatoryVariable": true,
      "mandatoryValue": true,
      "originType": "Assigned",
      "originSource": "Sponsor"
    },
    {
      "name": "DSTERM",
      "dataElementConceptId": "C82571",
      "isNonStandard": false,
      "role": "Topic",
      "dataType": "text",
      "length": 200,
      "relationship": {
        "subject": "DSTERM",
        "linkingPhrase": "is original text for",
        "predicateTerm": "IS_ORIGINAL_TEXT_FOR",
        "object": "DSDECOD"
      },
      "mandatoryVariable": true,
      "mandatoryValue": true,
      "originType": "Collected",
      "originSource": "Investigator"
    },
    {
      "name": "DSSTDTC",
      "dataElementConceptId": "C82517",
      "isNonStandard": false,
      "role": "Timing",
      "dataType": "datetime",
      "relationship": {
        "subject": "DSSTDTC",
        "linkingPhrase": "is the start date for",
        "predicateTerm": "IS_TIMING_FOR",
        "object": "DSTERM"
      },
      "mandatoryVariable": true,
      "mandatoryValue": false,
      "originType": "Collected",
      "originSource": "Investigator"
    }
  ]
}
