{
  "_links": {
    "parentBiomedicalConcept": {
      "href": "/mdr/bc/biomedicalconcepts/C181501",
      "title": "Muscle Endurance Measurement",
      "type": "Biomedical Concept"
    },
    "parentPackage": {
      "href": "/mdr/specializations/sdtm/packages/2025-12-16/datasetspecializations",
      "title": "SDTM Dataset Specialization Package Effective 2025-12-16",
      "type": "SDTM Dataset Specialization Package"
    },
    "self": {
      "href": "/mdr/specializations/sdtm/datasetspecializations/ENDURM",
      "title": "Muscle Endurance",
      "type": "SDTM Dataset Specialization"
    }
  },
  "datasetSpecializationId": "ENDURM",
  "domain": "MK",
  "shortName": "Muscle Endurance",
  "source": "MK.MKTESTCD",
  "sdtmigStartVersion": "3-3",
  "sdtmigEndVersion": "",
  "variables": [
    {
      "name": "MKTESTCD",
      "isNonStandard": false,
      "codelist": {
        "conceptId": "C127269",
        "submissionValue": "MUSCTSCD",
        "href": "https://evsexplore.semantics.cancer.gov/evsexplore/concept/ncit/C127269"
      },
      "assignedTerm": {
        "conceptId": "C181501",
        "value": "ENDURM"
      },
      "role": "Topic",
      "relationship": {
        "subject": "MKTESTCD",
        "linkingPhrase": "is the code for the value in",
        "predicateTerm": "IS_DECODED_BY",
        "object": "MKTEST"
      },
      "mandatoryVariable": true,
      "mandatoryValue": true,
      "comparator": "EQ"
    },
    {
      "name": "MKTEST",
      "isNonStandard": false,
      "codelist": {
        "conceptId": "C127270",
        "submissionValue": "MUSCTS",
        "href": "https://evsexplore.semantics.cancer.gov/evsexplore/concept/ncit/C127270"
      },
      "assignedTerm": {
        "conceptId": "C181501",
        "value": "Muscle Endurance"
      },
      "role": "Qualifier",
      "relationship": {
        "subject": "MKTEST",
        "linkingPhrase": "decodes the value in",
        "predicateTerm": "DECODES",
        "object": "MKTESTCD"
      },
      "mandatoryVariable": true,
      "mandatoryValue": true
    },
    {
      "name": "MKORRES",
      "dataElementConceptId": "C70856",
      "isNonStandard": false,
      "role": "Qualifier",
      "dataType": "float",
      "length": 8,
      "format": "8.3",
      "significantDigits": 3,
      "relationship": {
        "subject": "MKORRES",
        "linkingPhrase": "is the result of the test in",
        "predicateTerm": "IS_RESULT_OF",
        "object": "MKTESTCD"
      },
      "mandatoryVariable": true,
      "mandatoryValue": false,
      "originType": "Collected",
      "originSource": "Investigator",
      "vlmTarget": true
    },
    {
      "name": "MKORRESU",
      "dataElementConceptId": "C42574",
      "isNonStandard": false,
      "codelist": {
        "conceptId": "C71620",
        "submissionValue": "UNIT",
        "href": "https://evsexplore.semantics.cancer.gov/evsexplore/concept/ncit/C71620"
      },
      "assignedTerm": {
        "conceptId": "C42535",
        "value": "s"
      },
      "role": "Qualifier",
      "relationship": {
        "subject": "MKORRESU",
        "linkingPhrase": "is the unit for the value in",
        "predicateTerm": "IS_UNIT_FOR",
        "object": "MKORRES"
      },
      "mandatoryVariable": false,
      "mandatoryValue": false,
      "vlmTarget": true
    },
    {
      "name": "MKSTRESC",
      "dataElementConceptId": "C70856",
      "isNonStandard": false,
      "role": "Qualifier",
      "dataType": "float",
      "length": 8,
      "format": "8.3",
      "significantDigits": 3,
      "relationship": {
        "subject": "MKSTRESC",
        "linkingPhrase": "is the result of the test in",
        "predicateTerm": "IS_RESULT_OF",
        "object": "MKTESTCD"
      },
      "mandatoryVariable": true,
      "mandatoryValue": false,
      "originType": "Collected",
      "originSource": "Investigator",
      "vlmTarget": true
    },
    {
      "name": "MKSTRESN",
      "dataElementConceptId": "C70856",
      "isNonStandard": false,
      "role": "Qualifier",
      "dataType": "float",
      "length": 8,
      "format": "8.3",
      "significantDigits": 3,
      "relationship": {
        "subject": "MKSTRESN",
        "linkingPhrase": "is the result of the test in",
        "predicateTerm": "IS_RESULT_OF",
        "object": "MKTESTCD"
      },
      "mandatoryVariable": true,
      "mandatoryValue": false,
      "originType": "Collected",
      "originSource": "Investigator",
      "vlmTarget": true
    },
    {
      "name": "MKSTRESU",
      "dataElementConceptId": "C42574",
      "isNonStandard": false,
      "codelist": {
        "conceptId": "C71620",
        "submissionValue": "UNIT",
        "href": "https://evsexplore.semantics.cancer.gov/evsexplore/concept/ncit/C71620"
      },
      "assignedTerm": {
        "conceptId": "C42535",
        "value": "s"
      },
      "role": "Qualifier",
      "relationship": {
        "subject": "MKSTRESU",
        "linkingPhrase": "is the unit for the value in",
        "predicateTerm": "IS_UNIT_FOR",
        "object": "MKORRES"
      },
      "mandatoryVariable": false,
      "mandatoryValue": false,
      "vlmTarget": true
    },
    {
      "name": "MKLOC",
      "dataElementConceptId": "C13717",
      "isNonStandard": false,
      "codelist": {
        "conceptId": "C74456",
        "submissionValue": "LOC",
        "href": "https://evsexplore.semantics.cancer.gov/evsexplore/concept/ncit/C74456"
      },
      "role": "Qualifier",
      "relationship": {
        "subject": "MKLOC",
        "linkingPhrase": "specifies the anatomical location of the performance of the test in",
        "predicateTerm": "SPECIFIES",
        "object": "MKTESTCD"
      },
      "mandatoryVariable": false,
      "mandatoryValue": false
    },
    {
      "name": "MKLAT",
      "dataElementConceptId": "C25185",
      "isNonStandard": false,
      "codelist": {
        "conceptId": "C99073",
        "submissionValue": "LAT",
        "href": "https://evsexplore.semantics.cancer.gov/evsexplore/concept/ncit/C99073"
      },
      "valueList": [
        "RIGHT",
        "LEFT"
      ],
      "role": "Qualifier",
      "relationship": {
        "subject": "MKLAT",
        "linkingPhrase": "further specifies the anatomical location in",
        "predicateTerm": "SPECIFIES",
        "object": "MKLOC"
      },
      "mandatoryVariable": false,
      "mandatoryValue": false,
      "comparator": "IN"
    },
    {
      "name": "MKMETHOD",
      "dataElementConceptId": "C82535",
      "isNonStandard": false,
      "codelist": {
        "conceptId": "C85492",
        "submissionValue": "METHOD",
        "href": "https://evsexplore.semantics.cancer.gov/evsexplore/concept/ncit/C85492"
      },
      "role": "Qualifier",
      "relationship": {
        "subject": "MKMETHOD",
        "linkingPhrase": "is the method for the test in",
        "predicateTerm": "SPECIFIES",
        "object": "MKTESTCD"
      },
      "mandatoryVariable": false,
      "mandatoryValue": false
    },
    {
      "name": "MKDTC",
      "dataElementConceptId": "C82515",
      "isNonStandard": false,
      "role": "Timing",
      "relationship": {
        "subject": "MKDTC",
        "linkingPhrase": "is the date of occurrence for",
        "predicateTerm": "IS_TIMING_FOR",
        "object": "MKTESTCD"
      },
      "mandatoryVariable": true,
      "mandatoryValue": false,
      "originType": "Collected",
      "originSource": "Investigator"
    }
  ]
}
