{
  "_links": {
    "parentBiomedicalConcept": {
      "href": "/mdr/bc/biomedicalconcepts/C25370",
      "title": "Exclusion Criteria",
      "type": "Biomedical Concept"
    },
    "parentPackage": {
      "href": "/mdr/specializations/sdtm/packages/2025-12-16/datasetspecializations",
      "title": "SDTM Dataset Specialization Package Effective 2025-12-16",
      "type": "SDTM Dataset Specialization Package"
    },
    "self": {
      "href": "/mdr/specializations/sdtm/datasetspecializations/EXCL01",
      "title": "Exclusion Criteria 01",
      "type": "SDTM Dataset Specialization"
    }
  },
  "datasetSpecializationId": "EXCL01",
  "domain": "IE",
  "shortName": "Exclusion Criteria 01",
  "source": "IE.IETESTCD",
  "sdtmigStartVersion": "3-2",
  "sdtmigEndVersion": "",
  "variables": [
    {
      "name": "IETESTCD",
      "isNonStandard": false,
      "assignedTerm": {
        "value": "EXCL01"
      },
      "role": "Topic",
      "relationship": {
        "subject": "IETESTCD",
        "linkingPhrase": "is the code for the value in",
        "predicateTerm": "IS_DECODED_BY",
        "object": "IETEST"
      },
      "mandatoryVariable": true,
      "mandatoryValue": true,
      "originType": "Assigned",
      "originSource": "Sponsor",
      "comparator": "EQ"
    },
    {
      "name": "IETEST",
      "isNonStandard": false,
      "assignedTerm": {
        "value": "Exclusion Criteria 01"
      },
      "role": "Qualifier",
      "relationship": {
        "subject": "IETEST",
        "linkingPhrase": "decodes the value in",
        "predicateTerm": "DECODES",
        "object": "IETESTCD"
      },
      "mandatoryVariable": true,
      "mandatoryValue": true,
      "originType": "Assigned",
      "originSource": "Sponsor"
    },
    {
      "name": "TIVERS",
      "dataElementConceptId": "C83444",
      "isNonStandard": true,
      "mandatoryVariable": false,
      "mandatoryValue": false,
      "originType": "Assigned",
      "originSource": "Sponsor"
    },
    {
      "name": "IECAT",
      "dataElementConceptId": "C25372",
      "isNonStandard": false,
      "codelist": {
        "conceptId": "C66797",
        "submissionValue": "IECAT",
        "href": "https://evsexplore.semantics.cancer.gov/evsexplore/concept/ncit/C66797"
      },
      "assignedTerm": {
        "conceptId": "C25370",
        "value": "EXCLUSION"
      },
      "role": "Qualifier",
      "relationship": {
        "subject": "IECAT",
        "linkingPhrase": "groups values in",
        "predicateTerm": "GROUPS",
        "object": "IETESTCD"
      },
      "mandatoryVariable": true,
      "mandatoryValue": true,
      "originType": "Assigned",
      "originSource": "Sponsor",
      "comparator": "EQ"
    },
    {
      "name": "IEORRES",
      "dataElementConceptId": "C181043",
      "isNonStandard": false,
      "codelist": {
        "conceptId": "C66742",
        "submissionValue": "NY",
        "href": "https://evsexplore.semantics.cancer.gov/evsexplore/concept/ncit/C66742"
      },
      "subsetCodelist": "NY_Y",
      "valueList": [
        "Y"
      ],
      "role": "Qualifier",
      "dataType": "text",
      "length": 1,
      "relationship": {
        "subject": "IEORRES",
        "linkingPhrase": "is the result of the test in",
        "predicateTerm": "IS_RESULT_OF",
        "object": "IETESTCD"
      },
      "mandatoryVariable": true,
      "mandatoryValue": false,
      "originType": "Collected",
      "originSource": "Investigator",
      "vlmTarget": true
    },
    {
      "name": "IESTRESC",
      "dataElementConceptId": "C181043",
      "isNonStandard": false,
      "codelist": {
        "conceptId": "C66742",
        "submissionValue": "NY",
        "href": "https://evsexplore.semantics.cancer.gov/evsexplore/concept/ncit/C66742"
      },
      "subsetCodelist": "NY_Y",
      "valueList": [
        "Y"
      ],
      "role": "Qualifier",
      "dataType": "text",
      "length": 1,
      "relationship": {
        "subject": "IESTRESC",
        "linkingPhrase": "is the result of the test in",
        "predicateTerm": "IS_RESULT_OF",
        "object": "IETESTCD"
      },
      "mandatoryVariable": true,
      "mandatoryValue": false,
      "originType": "Assigned",
      "originSource": "Sponsor",
      "vlmTarget": true
    },
    {
      "name": "IEDTC",
      "dataElementConceptId": "C82515",
      "isNonStandard": false,
      "role": "Timing",
      "relationship": {
        "subject": "IEDTC",
        "linkingPhrase": "is the date of occurrence for",
        "predicateTerm": "IS_TIMING_FOR",
        "object": "IETESTCD"
      },
      "mandatoryVariable": false,
      "mandatoryValue": false,
      "originType": "Collected",
      "originSource": "Investigator"
    }
  ]
}
