{
  "_links": {
    "parentBiomedicalConcept": {
      "href": "/mdr/bc/biomedicalconcepts/C105448",
      "title": "Failure to Meet Randomization Criteria [RETIRED]",
      "type": "Biomedical Concept"
    },
    "parentPackage": {
      "href": "/mdr/specializations/sdtm/packages/2026-03-31/datasetspecializations",
      "title": "SDTM Dataset Specialization Package Effective 2026-03-31",
      "type": "SDTM Dataset Specialization Package"
    },
    "self": {
      "href": "/mdr/specializations/sdtm/datasetspecializations/FAILRAND",
      "title": "Failure to Meet Randomization Criteria [RETIRED]",
      "type": "SDTM Dataset Specialization"
    }
  },
  "datasetSpecializationId": "FAILRAND",
  "domain": "DS",
  "shortName": "Failure to Meet Randomization Criteria [RETIRED]",
  "source": "DS.DECODE",
  "sdtmigStartVersion": "3-2",
  "sdtmigEndVersion": "",
  "variables": [
    {
      "name": "DSCAT",
      "dataElementConceptId": "C25372",
      "isNonStandard": false,
      "codelist": {
        "conceptId": "C74558",
        "submissionValue": "DSCAT",
        "href": "https://evsexplore.semantics.cancer.gov/evsexplore/concept/ncit/C74558"
      },
      "assignedTerm": {
        "conceptId": "C74590",
        "value": "DISPOSITION EVENT"
      },
      "role": "Qualifier",
      "dataType": "text",
      "length": 200,
      "relationship": {
        "subject": "DSCAT",
        "linkingPhrase": "groups values in",
        "predicateTerm": "GROUPS",
        "object": "DSTERM"
      },
      "mandatoryVariable": true,
      "mandatoryValue": false,
      "originType": "Assigned",
      "originSource": "Sponsor"
    },
    {
      "name": "DSSCAT",
      "dataElementConceptId": "C25692",
      "isNonStandard": false,
      "codelist": {
        "conceptId": "C170443",
        "submissionValue": "DSSCAT",
        "href": "https://evsexplore.semantics.cancer.gov/evsexplore/concept/ncit/C170443"
      },
      "role": "Qualifier",
      "dataType": "text",
      "length": 200,
      "relationship": {
        "subject": "DSSCAT",
        "linkingPhrase": "groups values in",
        "predicateTerm": "GROUPS",
        "object": "DSTERM"
      },
      "mandatoryVariable": true,
      "mandatoryValue": false,
      "originType": "Assigned",
      "originSource": "Sponsor"
    },
    {
      "name": "DSDECOD",
      "dataElementConceptId": "C82977",
      "isNonStandard": false,
      "codelist": {
        "conceptId": "C66727",
        "submissionValue": "NCOMPLT",
        "href": "https://evsexplore.semantics.cancer.gov/evsexplore/concept/ncit/C66727"
      },
      "assignedTerm": {
        "conceptId": "C105448",
        "value": "FAILURE TO MEET RANDOMIZATION CRITERIA"
      },
      "role": "Qualifier",
      "dataType": "text",
      "length": 200,
      "relationship": {
        "subject": "DSDECOD",
        "linkingPhrase": "is a dictionary-derived term for the value in",
        "predicateTerm": "IS_DERIVED_FROM",
        "object": "DSTERM"
      },
      "mandatoryVariable": true,
      "mandatoryValue": true,
      "originType": "Assigned",
      "originSource": "Sponsor"
    },
    {
      "name": "DSTERM",
      "dataElementConceptId": "C82571",
      "isNonStandard": false,
      "role": "Topic",
      "dataType": "text",
      "length": 200,
      "relationship": {
        "subject": "DSTERM",
        "linkingPhrase": "is original text for",
        "predicateTerm": "IS_ORIGINAL_TEXT_FOR",
        "object": "DSDECOD"
      },
      "mandatoryVariable": true,
      "mandatoryValue": true,
      "originType": "Collected",
      "originSource": "Investigator"
    },
    {
      "name": "DSSTDTC",
      "dataElementConceptId": "C82517",
      "isNonStandard": false,
      "role": "Timing",
      "dataType": "datetime",
      "relationship": {
        "subject": "DSSTDTC",
        "linkingPhrase": "is the start date for",
        "predicateTerm": "IS_TIMING_FOR",
        "object": "DSTERM"
      },
      "mandatoryVariable": true,
      "mandatoryValue": false,
      "originType": "Collected",
      "originSource": "Investigator"
    }
  ]
}
