{
  "_links": {
    "parentBiomedicalConcept": {
      "href": "/mdr/bc/biomedicalconcepts/C112281",
      "title": "Antigenic Skin Flare Longest Diameter Measurement",
      "type": "Biomedical Concept"
    },
    "parentPackage": {
      "href": "/mdr/specializations/sdtm/packages/2025-12-16/datasetspecializations",
      "title": "SDTM Dataset Specialization Package Effective 2025-12-16",
      "type": "SDTM Dataset Specialization Package"
    },
    "self": {
      "href": "/mdr/specializations/sdtm/datasetspecializations/FLRLDIAM",
      "title": "Flare Longest Diameter",
      "type": "SDTM Dataset Specialization"
    }
  },
  "datasetSpecializationId": "FLRLDIAM",
  "domain": "SR",
  "shortName": "Flare Longest Diameter",
  "source": "SR.SRTESTCD",
  "sdtmigStartVersion": "3-2",
  "sdtmigEndVersion": "",
  "variables": [
    {
      "name": "SRTESTCD",
      "isNonStandard": false,
      "codelist": {
        "conceptId": "C112024",
        "submissionValue": "SRTESTCD",
        "href": "https://evsexplore.semantics.cancer.gov/evsexplore/concept/ncit/C112024"
      },
      "assignedTerm": {
        "conceptId": "C112281",
        "value": "FLRLDIAM"
      },
      "role": "Topic",
      "relationship": {
        "subject": "SRTESTCD",
        "linkingPhrase": "is the code for the value in",
        "predicateTerm": "IS_DECODED_BY",
        "object": "SRTEST"
      },
      "mandatoryVariable": true,
      "mandatoryValue": true,
      "comparator": "EQ"
    },
    {
      "name": "SRTEST",
      "isNonStandard": false,
      "codelist": {
        "conceptId": "C112023",
        "submissionValue": "SRTEST",
        "href": "https://evsexplore.semantics.cancer.gov/evsexplore/concept/ncit/C112023"
      },
      "assignedTerm": {
        "conceptId": "C112281",
        "value": "Flare Longest Diameter"
      },
      "role": "Qualifier",
      "relationship": {
        "subject": "SRTEST",
        "linkingPhrase": "decodes the value in",
        "predicateTerm": "DECODES",
        "object": "SRTESTCD"
      },
      "mandatoryVariable": true,
      "mandatoryValue": true
    },
    {
      "name": "SROBJ",
      "isNonStandard": false,
      "role": "Qualifier",
      "relationship": {
        "subject": "SROBJ",
        "linkingPhrase": "is the object of the observation in",
        "predicateTerm": "IS_ATTRIBUTE_FOR",
        "object": "SRTESTCD"
      },
      "mandatoryVariable": true,
      "mandatoryValue": true
    },
    {
      "name": "SRORRES",
      "dataElementConceptId": "C70856",
      "isNonStandard": false,
      "role": "Qualifier",
      "dataType": "float",
      "length": 8,
      "format": "8.3",
      "significantDigits": 3,
      "relationship": {
        "subject": "SRORRES",
        "linkingPhrase": "is the result of the test in",
        "predicateTerm": "IS_RESULT_OF",
        "object": "SRTESTCD"
      },
      "mandatoryVariable": true,
      "mandatoryValue": false,
      "originType": "Collected",
      "originSource": "Investigator",
      "vlmTarget": true
    },
    {
      "name": "SRORRESU",
      "dataElementConceptId": "C42578",
      "isNonStandard": false,
      "codelist": {
        "conceptId": "C71620",
        "submissionValue": "UNIT",
        "href": "https://evsexplore.semantics.cancer.gov/evsexplore/concept/ncit/C71620"
      },
      "valueList": [
        "mm",
        "cm",
        "in"
      ],
      "role": "Qualifier",
      "relationship": {
        "subject": "SRORRESU",
        "linkingPhrase": "is the unit for the value in",
        "predicateTerm": "IS_UNIT_FOR",
        "object": "SRORRES"
      },
      "mandatoryVariable": true,
      "mandatoryValue": false,
      "vlmTarget": true
    },
    {
      "name": "SRSTRESC",
      "dataElementConceptId": "C70856",
      "isNonStandard": false,
      "role": "Qualifier",
      "dataType": "float",
      "length": 8,
      "format": "8.3",
      "significantDigits": 3,
      "relationship": {
        "subject": "SRSTRESC",
        "linkingPhrase": "is the result of the test in",
        "predicateTerm": "IS_RESULT_OF",
        "object": "SRTESTCD"
      },
      "mandatoryVariable": true,
      "mandatoryValue": false,
      "originType": "Collected",
      "originSource": "Investigator",
      "vlmTarget": true
    },
    {
      "name": "SRSTRESN",
      "dataElementConceptId": "C70856",
      "isNonStandard": false,
      "role": "Qualifier",
      "dataType": "float",
      "length": 8,
      "format": "8.3",
      "significantDigits": 3,
      "relationship": {
        "subject": "SRSTRESN",
        "linkingPhrase": "is the result of the test in",
        "predicateTerm": "IS_RESULT_OF",
        "object": "SRTESTCD"
      },
      "mandatoryVariable": true,
      "mandatoryValue": false,
      "originType": "Collected",
      "originSource": "Investigator",
      "vlmTarget": true
    },
    {
      "name": "SRSTRESU",
      "dataElementConceptId": "C42578",
      "isNonStandard": false,
      "codelist": {
        "conceptId": "C71620",
        "submissionValue": "UNIT",
        "href": "https://evsexplore.semantics.cancer.gov/evsexplore/concept/ncit/C71620"
      },
      "valueList": [
        "mm",
        "cm",
        "in"
      ],
      "role": "Qualifier",
      "relationship": {
        "subject": "SRSTRESU",
        "linkingPhrase": "is the result of the test in",
        "predicateTerm": "IS_RESULT_OF",
        "object": "SRORRES"
      },
      "mandatoryVariable": true,
      "mandatoryValue": false,
      "vlmTarget": true
    },
    {
      "name": "SRLOC",
      "dataElementConceptId": "C13717",
      "isNonStandard": false,
      "codelist": {
        "conceptId": "C74456",
        "submissionValue": "LOC",
        "href": "https://evsexplore.semantics.cancer.gov/evsexplore/concept/ncit/C74456"
      },
      "role": "Qualifier",
      "relationship": {
        "subject": "SRLOC",
        "linkingPhrase": "specifies the anatomical location of the performance of the test in",
        "predicateTerm": "SPECIFIES",
        "object": "SRTESTCD"
      },
      "mandatoryVariable": false,
      "mandatoryValue": false
    },
    {
      "name": "SRLAT",
      "dataElementConceptId": "C25185",
      "isNonStandard": false,
      "codelist": {
        "conceptId": "C99073",
        "submissionValue": "LAT",
        "href": "https://evsexplore.semantics.cancer.gov/evsexplore/concept/ncit/C99073"
      },
      "role": "Qualifier",
      "relationship": {
        "subject": "SRLAT",
        "linkingPhrase": "further specifies the anatomical location in",
        "predicateTerm": "SPECIFIES",
        "object": "SRLOC"
      },
      "mandatoryVariable": false,
      "mandatoryValue": false
    },
    {
      "name": "SRMETHOD",
      "dataElementConceptId": "C82535",
      "isNonStandard": false,
      "codelist": {
        "conceptId": "C85492",
        "submissionValue": "METHOD",
        "href": "https://evsexplore.semantics.cancer.gov/evsexplore/concept/ncit/C85492"
      },
      "valueList": [
        "RULER MEASUREMENT METHOD"
      ],
      "role": "Qualifier",
      "relationship": {
        "subject": "SRMETHOD",
        "linkingPhrase": "is the method for the test in",
        "predicateTerm": "SPECIFIES",
        "object": "SRTESTCD"
      },
      "mandatoryVariable": false,
      "mandatoryValue": false
    },
    {
      "name": "SRDTC",
      "dataElementConceptId": "C82515",
      "isNonStandard": false,
      "role": "Timing",
      "relationship": {
        "subject": "SRDTC",
        "linkingPhrase": "is the date of occurrence for",
        "predicateTerm": "IS_TIMING_FOR",
        "object": "SRTESTCD"
      },
      "mandatoryVariable": true,
      "mandatoryValue": false,
      "originType": "Collected",
      "originSource": "Investigator"
    }
  ]
}
