{
  "_links": {
    "parentBiomedicalConcept": {
      "href": "/mdr/bc/biomedicalconcepts/C154909",
      "title": "Fontanelle Closure Indicator",
      "type": "Biomedical Concept"
    },
    "parentPackage": {
      "href": "/mdr/specializations/sdtm/packages/2025-12-16/datasetspecializations",
      "title": "SDTM Dataset Specialization Package Effective 2025-12-16",
      "type": "SDTM Dataset Specialization Package"
    },
    "self": {
      "href": "/mdr/specializations/sdtm/datasetspecializations/FOCLOIND",
      "title": "Fontanelle Closure Indicator",
      "type": "SDTM Dataset Specialization"
    }
  },
  "datasetSpecializationId": "FOCLOIND",
  "domain": "MK",
  "shortName": "Fontanelle Closure Indicator",
  "source": "MK.MKTESTCD",
  "sdtmigStartVersion": "3-3",
  "sdtmigEndVersion": "",
  "variables": [
    {
      "name": "MKTESTCD",
      "isNonStandard": false,
      "codelist": {
        "conceptId": "C127269",
        "submissionValue": "MUSCTSCD",
        "href": "https://evsexplore.semantics.cancer.gov/evsexplore/concept/ncit/C127269"
      },
      "assignedTerm": {
        "conceptId": "C154909",
        "value": "FOCLOIND"
      },
      "role": "Topic",
      "relationship": {
        "subject": "MKTESTCD",
        "linkingPhrase": "is the code for the value in",
        "predicateTerm": "IS_DECODED_BY",
        "object": "MKTEST"
      },
      "mandatoryVariable": true,
      "mandatoryValue": true,
      "comparator": "EQ"
    },
    {
      "name": "MKTEST",
      "isNonStandard": false,
      "codelist": {
        "conceptId": "C127270",
        "submissionValue": "MUSCTS",
        "href": "https://evsexplore.semantics.cancer.gov/evsexplore/concept/ncit/C127270"
      },
      "assignedTerm": {
        "conceptId": "C154909",
        "value": "Fontanelle Closure Indicator"
      },
      "role": "Qualifier",
      "relationship": {
        "subject": "MKTEST",
        "linkingPhrase": "decodes the value in",
        "predicateTerm": "DECODES",
        "object": "MKTESTCD"
      },
      "mandatoryVariable": true,
      "mandatoryValue": true
    },
    {
      "name": "MKORRES",
      "dataElementConceptId": "C70856",
      "isNonStandard": false,
      "codelist": {
        "conceptId": "C66742",
        "submissionValue": "NY",
        "href": "https://evsexplore.semantics.cancer.gov/evsexplore/concept/ncit/C66742"
      },
      "valueList": [
        "N",
        "Y",
        "U"
      ],
      "role": "Qualifier",
      "dataType": "text",
      "length": 1,
      "relationship": {
        "subject": "MKORRES",
        "linkingPhrase": "is the result of the test in",
        "predicateTerm": "IS_RESULT_OF",
        "object": "MKTESTCD"
      },
      "mandatoryVariable": true,
      "mandatoryValue": false,
      "originType": "Collected",
      "originSource": "Investigator",
      "vlmTarget": true
    },
    {
      "name": "MKSTRESC",
      "dataElementConceptId": "C70856",
      "isNonStandard": false,
      "codelist": {
        "conceptId": "C66742",
        "submissionValue": "NY",
        "href": "https://evsexplore.semantics.cancer.gov/evsexplore/concept/ncit/C66742"
      },
      "valueList": [
        "N",
        "Y",
        "U"
      ],
      "role": "Qualifier",
      "dataType": "text",
      "length": 1,
      "relationship": {
        "subject": "MKSTRESC",
        "linkingPhrase": "is the result of the test in",
        "predicateTerm": "IS_RESULT_OF",
        "object": "MKTESTCD"
      },
      "mandatoryVariable": true,
      "mandatoryValue": false,
      "originType": "Collected",
      "originSource": "Investigator",
      "vlmTarget": true
    },
    {
      "name": "MKLOC",
      "dataElementConceptId": "C13717",
      "isNonStandard": false,
      "codelist": {
        "conceptId": "C74456",
        "submissionValue": "LOC",
        "href": "https://evsexplore.semantics.cancer.gov/evsexplore/concept/ncit/C74456"
      },
      "assignedTerm": {
        "conceptId": "C32621",
        "value": "FONTANELLE"
      },
      "role": "Qualifier",
      "relationship": {
        "subject": "MKLOC",
        "linkingPhrase": "specifies the anatomical location of the performance of the test in",
        "predicateTerm": "SPECIFIES",
        "object": "MKTESTCD"
      },
      "mandatoryVariable": false,
      "mandatoryValue": false,
      "comparator": "EQ"
    },
    {
      "name": "MKDTC",
      "dataElementConceptId": "C82515",
      "isNonStandard": false,
      "role": "Timing",
      "relationship": {
        "subject": "MKDTC",
        "linkingPhrase": "is the date of occurrence for",
        "predicateTerm": "IS_TIMING_FOR",
        "object": "MKTESTCD"
      },
      "mandatoryVariable": true,
      "mandatoryValue": false,
      "originType": "Collected",
      "originSource": "Investigator"
    }
  ]
}
