{
  "_links": {
    "parentBiomedicalConcept": {
      "href": "/mdr/bc/biomedicalconcepts/C49680",
      "title": "Body Frame Size",
      "type": "Biomedical Concept"
    },
    "parentPackage": {
      "href": "/mdr/specializations/sdtm/packages/2025-04-01/datasetspecializations",
      "title": "SDTM Dataset Specialization Package Effective 2025-04-01",
      "type": "SDTM Dataset Specialization Package"
    },
    "self": {
      "href": "/mdr/specializations/sdtm/datasetspecializations/FRMSIZE",
      "title": "Frame Size",
      "type": "SDTM Dataset Specialization"
    }
  },
  "datasetSpecializationId": "FRMSIZE",
  "domain": "VS",
  "shortName": "Frame Size",
  "source": "VS.VSTESTCD",
  "sdtmigStartVersion": "3-2",
  "sdtmigEndVersion": "",
  "variables": [
    {
      "name": "VSTESTCD",
      "isNonStandard": false,
      "codelist": {
        "conceptId": "C66741",
        "submissionValue": "VSTESTCD",
        "href": "https://evsexplore.semantics.cancer.gov/evsexplore/concept/ncit/C66741"
      },
      "assignedTerm": {
        "conceptId": "C49680",
        "value": "FRMSIZE"
      },
      "role": "Topic",
      "relationship": {
        "subject": "VSTESTCD",
        "linkingPhrase": "is the code for the value in",
        "predicateTerm": "IS_DECODED_BY",
        "object": "VSTEST"
      },
      "mandatoryVariable": true,
      "mandatoryValue": false,
      "comparator": "EQ"
    },
    {
      "name": "VSTEST",
      "isNonStandard": false,
      "codelist": {
        "conceptId": "C67153",
        "submissionValue": "VSTEST",
        "href": "https://evsexplore.semantics.cancer.gov/evsexplore/concept/ncit/C67153"
      },
      "assignedTerm": {
        "conceptId": "C49680",
        "value": "Body Frame Size"
      },
      "role": "Qualifier",
      "relationship": {
        "subject": "VSTEST",
        "linkingPhrase": "decodes the value in",
        "predicateTerm": "DECODES",
        "object": "VSTESTCD"
      },
      "mandatoryVariable": true,
      "mandatoryValue": false
    },
    {
      "name": "VSORRES",
      "dataElementConceptId": "C70856",
      "isNonStandard": false,
      "codelist": {
        "conceptId": "C66733",
        "submissionValue": "SIZE",
        "href": "https://evsexplore.semantics.cancer.gov/evsexplore/concept/ncit/C66733"
      },
      "valueList": [
        "LARGE",
        "MEDIUM",
        "SMALL"
      ],
      "role": "Qualifier",
      "dataType": "text",
      "length": 20,
      "relationship": {
        "subject": "VSORRES",
        "linkingPhrase": "is the result of the test in",
        "predicateTerm": "IS_RESULT_OF",
        "object": "VSTESTCD"
      },
      "mandatoryVariable": true,
      "mandatoryValue": false,
      "originType": "Collected",
      "originSource": "Investigator",
      "vlmTarget": true
    },
    {
      "name": "VSSTRESC",
      "dataElementConceptId": "C70856",
      "isNonStandard": false,
      "codelist": {
        "conceptId": "C66733",
        "submissionValue": "SIZE",
        "href": "https://evsexplore.semantics.cancer.gov/evsexplore/concept/ncit/C66733"
      },
      "role": "Qualifier",
      "dataType": "text",
      "length": 20,
      "relationship": {
        "subject": "VSSTRESC",
        "linkingPhrase": "is the result of the test in",
        "predicateTerm": "IS_RESULT_OF",
        "object": "VSTESTCD"
      },
      "mandatoryVariable": false,
      "mandatoryValue": false,
      "vlmTarget": true
    },
    {
      "name": "VSDTC",
      "dataElementConceptId": "C82515",
      "isNonStandard": false,
      "role": "Timing",
      "relationship": {
        "subject": "VSDTC",
        "linkingPhrase": "is the date of occurrence for",
        "predicateTerm": "IS_TIMING_FOR",
        "object": "VSTESTCD"
      },
      "mandatoryVariable": true,
      "mandatoryValue": false
    }
  ]
}
