{
  "_links": {
    "parentBiomedicalConcept": {
      "href": "/mdr/bc/biomedicalconcepts/C102085",
      "title": "HAMA - Autonomic Symptoms",
      "type": "Biomedical Concept"
    },
    "parentPackage": {
      "href": "/mdr/specializations/sdtm/packages/2025-12-16/datasetspecializations",
      "title": "SDTM Dataset Specialization Package Effective 2025-12-16",
      "type": "SDTM Dataset Specialization Package"
    },
    "self": {
      "href": "/mdr/specializations/sdtm/datasetspecializations/HAMA113",
      "title": "HAMA1-Autonomic Symptoms",
      "type": "SDTM Dataset Specialization"
    }
  },
  "datasetSpecializationId": "HAMA113",
  "domain": "RS",
  "shortName": "HAMA1-Autonomic Symptoms",
  "source": "RS.RSTESTCD",
  "sdtmigStartVersion": "3-2",
  "sdtmigEndVersion": "",
  "variables": [
    {
      "name": "RSTESTCD",
      "isNonStandard": false,
      "codelist": {
        "conceptId": "C101819",
        "submissionValue": "HAMA1TC",
        "href": "https://evsexplore.semantics.cancer.gov/evsexplore/concept/ncit/C101819"
      },
      "assignedTerm": {
        "conceptId": "C102085",
        "value": "HAMA113"
      },
      "role": "Topic",
      "relationship": {
        "subject": "RSTESTCD",
        "linkingPhrase": "is the code for the value in",
        "predicateTerm": "IS_DECODED_BY",
        "object": "RSTEST"
      },
      "mandatoryVariable": true,
      "mandatoryValue": true,
      "comparator": "EQ"
    },
    {
      "name": "RSTEST",
      "isNonStandard": false,
      "codelist": {
        "conceptId": "C101820",
        "submissionValue": "HAMA1TN",
        "href": "https://evsexplore.semantics.cancer.gov/evsexplore/concept/ncit/C101820"
      },
      "assignedTerm": {
        "conceptId": "C102085",
        "value": "HAMA1-Autonomic Symptoms"
      },
      "role": "Qualifier",
      "relationship": {
        "subject": "RSTEST",
        "linkingPhrase": "decodes the value in",
        "predicateTerm": "DECODES",
        "object": "RSTESTCD"
      },
      "mandatoryVariable": true,
      "mandatoryValue": true
    },
    {
      "name": "RSCAT",
      "dataElementConceptId": "C25372",
      "isNonStandard": false,
      "codelist": {
        "conceptId": "C118971",
        "submissionValue": "CCCAT",
        "href": "https://evsexplore.semantics.cancer.gov/evsexplore/concept/ncit/C118971"
      },
      "assignedTerm": {
        "conceptId": "C102118",
        "value": "HAM-A"
      },
      "role": "Qualifier",
      "relationship": {
        "subject": "RSCAT",
        "linkingPhrase": "groups values in",
        "predicateTerm": "GROUPS",
        "object": "RSTESTCD"
      },
      "mandatoryVariable": true,
      "mandatoryValue": true,
      "comparator": "EQ"
    },
    {
      "name": "RSORRES",
      "dataElementConceptId": "C91106",
      "isNonStandard": false,
      "codelist": {
        "conceptId": "C182468",
        "submissionValue": "HAMA101T14OR",
        "href": "https://evsexplore.semantics.cancer.gov/evsexplore/concept/ncit/C182468"
      },
      "role": "Qualifier",
      "dataType": "text",
      "length": 20,
      "relationship": {
        "subject": "RSORRES",
        "linkingPhrase": "is the result of the test in",
        "predicateTerm": "IS_RESULT_OF",
        "object": "RSTESTCD"
      },
      "mandatoryVariable": true,
      "mandatoryValue": false,
      "originType": "Collected",
      "originSource": "Investigator",
      "vlmTarget": true
    },
    {
      "name": "RSSTRESC",
      "dataElementConceptId": "C46126",
      "isNonStandard": false,
      "codelist": {
        "conceptId": "C182506",
        "submissionValue": "HAMA101T14STR",
        "href": "https://evsexplore.semantics.cancer.gov/evsexplore/concept/ncit/C182506"
      },
      "role": "Qualifier",
      "dataType": "integer",
      "length": 1,
      "relationship": {
        "subject": "RSSTRESC",
        "linkingPhrase": "is the result of the test in",
        "predicateTerm": "IS_RESULT_OF",
        "object": "RSTESTCD"
      },
      "mandatoryVariable": true,
      "mandatoryValue": false,
      "originType": "Assigned",
      "originSource": "Sponsor",
      "vlmTarget": true
    },
    {
      "name": "RSSTRESN",
      "dataElementConceptId": "C46126",
      "isNonStandard": false,
      "codelist": {
        "conceptId": "C182506",
        "submissionValue": "HAMA101T14STR",
        "href": "https://evsexplore.semantics.cancer.gov/evsexplore/concept/ncit/C182506"
      },
      "role": "Qualifier",
      "dataType": "integer",
      "length": 1,
      "relationship": {
        "subject": "RSSTRESN",
        "linkingPhrase": "is the result of the test in",
        "predicateTerm": "IS_RESULT_OF",
        "object": "RSTESTCD"
      },
      "mandatoryVariable": true,
      "mandatoryValue": false,
      "originType": "Assigned",
      "originSource": "Sponsor",
      "vlmTarget": true
    },
    {
      "name": "RSDTC",
      "dataElementConceptId": "C82515",
      "isNonStandard": false,
      "role": "Timing",
      "relationship": {
        "subject": "RSDTC",
        "linkingPhrase": "is the date of occurrence for",
        "predicateTerm": "IS_TIMING_FOR",
        "object": "RSTESTCD"
      },
      "mandatoryVariable": true,
      "mandatoryValue": false,
      "originType": "Collected",
      "originSource": "Investigator"
    }
  ]
}
