{
  "_links": {
    "parentBiomedicalConcept": {
      "href": "/mdr/bc/biomedicalconcepts/C98737",
      "title": "Healthy Subject Indicator",
      "type": "Biomedical Concept"
    },
    "parentPackage": {
      "href": "/mdr/specializations/sdtm/packages/2025-07-01/datasetspecializations",
      "title": "SDTM Dataset Specialization Package Effective 2025-07-01",
      "type": "SDTM Dataset Specialization Package"
    },
    "self": {
      "href": "/mdr/specializations/sdtm/datasetspecializations/HLTSUBJI",
      "title": "Healthy Subject Indicator (TS)",
      "type": "SDTM Dataset Specialization"
    }
  },
  "datasetSpecializationId": "HLTSUBJI",
  "domain": "TS",
  "shortName": "Healthy Subject Indicator (TS)",
  "source": "TS.TSPARMCD",
  "sdtmigStartVersion": "3-2",
  "sdtmigEndVersion": "",
  "variables": [
    {
      "name": "TSPARMCD",
      "dataElementConceptId": "C83445",
      "isNonStandard": false,
      "codelist": {
        "conceptId": "C66738",
        "submissionValue": "TSPARMCD",
        "href": "https://evsexplore.semantics.cancer.gov/evsexplore/concept/ncit/C66738"
      },
      "assignedTerm": {
        "conceptId": "C98737",
        "value": "HLTSUBJI"
      },
      "role": "Topic",
      "relationship": {
        "subject": "TSPARMCD",
        "linkingPhrase": "is the code for the value in",
        "predicateTerm": "IS_DECODED_BY",
        "object": "TSPARM"
      },
      "mandatoryVariable": false,
      "mandatoryValue": false,
      "comparator": "EQ"
    },
    {
      "name": "TSPARM",
      "dataElementConceptId": "C49691",
      "isNonStandard": false,
      "codelist": {
        "conceptId": "C67152",
        "submissionValue": "TSPARM",
        "href": "https://evsexplore.semantics.cancer.gov/evsexplore/concept/ncit/C67152"
      },
      "assignedTerm": {
        "conceptId": "C98737",
        "value": "Healthy Subject Indicator"
      },
      "role": "Qualifier",
      "relationship": {
        "subject": "TSPARM",
        "linkingPhrase": "decodes the value in",
        "predicateTerm": "DECODES",
        "object": "TSPARMCD"
      },
      "mandatoryVariable": false,
      "mandatoryValue": false
    },
    {
      "name": "TSVAL",
      "dataElementConceptId": "C83447",
      "isNonStandard": false,
      "codelist": {
        "conceptId": "C66742",
        "submissionValue": "NY",
        "href": "https://evsexplore.semantics.cancer.gov/evsexplore/concept/ncit/C66742"
      },
      "valueList": [
        "N",
        "Y"
      ],
      "role": "Qualifier",
      "relationship": {
        "subject": "TSVAL",
        "linkingPhrase": "is the value of the property identified by",
        "predicateTerm": "IS_VALUE_OF",
        "object": "TSPARMCD"
      },
      "mandatoryVariable": false,
      "mandatoryValue": false,
      "vlmTarget": true
    },
    {
      "name": "TSVALCD",
      "dataElementConceptId": "C117458",
      "isNonStandard": false,
      "role": "Qualifier",
      "relationship": {
        "subject": "TSVALCD",
        "linkingPhrase": "is the code for the value in",
        "predicateTerm": "IS_DECODED_BY",
        "object": "TSVAL"
      },
      "mandatoryVariable": false,
      "mandatoryValue": false,
      "vlmTarget": true
    },
    {
      "name": "TSVCDREF",
      "dataElementConceptId": "C117460",
      "isNonStandard": false,
      "codelist": {
        "conceptId": "C66788",
        "submissionValue": "DICTNAM",
        "href": "https://evsexplore.semantics.cancer.gov/evsexplore/concept/ncit/C66788"
      },
      "role": "Qualifier",
      "relationship": {
        "subject": "TSVCDREF",
        "linkingPhrase": "is the name of the reference terminology for",
        "predicateTerm": "IS_REFERENCE_TERMINOLOGY_FOR",
        "object": "TSVALCD"
      },
      "mandatoryVariable": false,
      "mandatoryValue": false,
      "vlmTarget": true
    },
    {
      "name": "TSVCDVER",
      "dataElementConceptId": "C117461",
      "isNonStandard": false,
      "role": "Qualifier",
      "relationship": {
        "subject": "TSVCDVER",
        "linkingPhrase": "is the version of the reference terminology in",
        "predicateTerm": "QUALIFIES",
        "object": "TSVCDREF"
      },
      "mandatoryVariable": false,
      "mandatoryValue": false,
      "vlmTarget": true
    }
  ]
}
