{
  "_links": {
    "parentBiomedicalConcept": {
      "href": "/mdr/bc/biomedicalconcepts/C181394",
      "title": "Microbial-induced IgG Antibody Measurement",
      "type": "Biomedical Concept"
    },
    "parentPackage": {
      "href": "/mdr/specializations/sdtm/packages/2025-12-16/datasetspecializations",
      "title": "SDTM Dataset Specialization Package Effective 2025-12-16",
      "type": "SDTM Dataset Specialization Package"
    },
    "self": {
      "href": "/mdr/specializations/sdtm/datasetspecializations/MBIGGABSP",
      "title": "Microbial-induced IgG Antibody for Streptococcus Pneumoniae",
      "type": "SDTM Dataset Specialization"
    }
  },
  "datasetSpecializationId": "MBIGGABSP",
  "domain": "IS",
  "shortName": "Microbial-induced IgG Antibody for Streptococcus Pneumoniae",
  "source": "IS.ISTESTCD",
  "sdtmigStartVersion": "3-4",
  "sdtmigEndVersion": "",
  "variables": [
    {
      "name": "ISTESTCD",
      "isNonStandard": false,
      "codelist": {
        "conceptId": "C120525",
        "submissionValue": "ISTESTCD",
        "href": "https://evsexplore.semantics.cancer.gov/evsexplore/concept/ncit/C120525"
      },
      "assignedTerm": {
        "conceptId": "C181394",
        "value": "MBIGGAB"
      },
      "role": "Topic",
      "relationship": {
        "subject": "ISTESTCD",
        "linkingPhrase": "is the code for the value in",
        "predicateTerm": "IS_DECODED_BY",
        "object": "ISTEST"
      },
      "mandatoryVariable": true,
      "mandatoryValue": true,
      "comparator": "EQ"
    },
    {
      "name": "ISTEST",
      "isNonStandard": false,
      "codelist": {
        "conceptId": "C120526",
        "submissionValue": "ISTEST",
        "href": "https://evsexplore.semantics.cancer.gov/evsexplore/concept/ncit/C120526"
      },
      "assignedTerm": {
        "conceptId": "C181394",
        "value": "Microbial-induced IgG Antibody"
      },
      "role": "Qualifier",
      "relationship": {
        "subject": "ISTEST",
        "linkingPhrase": "decodes the value in",
        "predicateTerm": "DECODES",
        "object": "ISTESTCD"
      },
      "mandatoryVariable": true,
      "mandatoryValue": true
    },
    {
      "name": "ISBDAGNT",
      "dataElementConceptId": "C42647",
      "isNonStandard": false,
      "codelist": {
        "conceptId": "C85491",
        "submissionValue": "MICROORG",
        "href": "https://evsexplore.semantics.cancer.gov/evsexplore/concept/ncit/C85491"
      },
      "assignedTerm": {
        "conceptId": "C76384",
        "value": "STREPTOCOCCUS PNEUMONIAE"
      },
      "role": "Qualifier",
      "relationship": {
        "subject": "ISBDAGNT",
        "linkingPhrase": "is the substance bound to the analyte in",
        "predicateTerm": "IS_ATTRIBUTE_FOR",
        "object": "ISTESTCD"
      },
      "mandatoryVariable": true,
      "mandatoryValue": false,
      "comparator": "EQ"
    },
    {
      "name": "ISCAT",
      "dataElementConceptId": "C25372",
      "isNonStandard": false,
      "role": "Qualifier",
      "relationship": {
        "subject": "ISCAT",
        "linkingPhrase": "groups values in",
        "predicateTerm": "GROUPS",
        "object": "ISTESTCD"
      },
      "mandatoryVariable": false,
      "mandatoryValue": false
    },
    {
      "name": "ISSCAT",
      "dataElementConceptId": "C25692",
      "isNonStandard": false,
      "role": "Qualifier",
      "relationship": {
        "subject": "ISSCAT",
        "linkingPhrase": "values are grouped by",
        "predicateTerm": "IS_GROUPED_BY",
        "object": "ISCAT"
      },
      "mandatoryVariable": false,
      "mandatoryValue": false
    },
    {
      "name": "ISORRES",
      "dataElementConceptId": "C70856",
      "isNonStandard": false,
      "role": "Qualifier",
      "dataType": "float",
      "length": 8,
      "format": "8.3",
      "significantDigits": 3,
      "relationship": {
        "subject": "ISORRES",
        "linkingPhrase": "is the result of the test in",
        "predicateTerm": "IS_RESULT_OF",
        "object": "ISTESTCD"
      },
      "mandatoryVariable": true,
      "mandatoryValue": false,
      "originType": "Collected",
      "originSource": "Investigator",
      "vlmTarget": true
    },
    {
      "name": "ISORRESU",
      "isNonStandard": false,
      "codelist": {
        "conceptId": "C71620",
        "submissionValue": "UNIT",
        "href": "https://evsexplore.semantics.cancer.gov/evsexplore/concept/ncit/C71620"
      },
      "valueList": [
        "IU/mL",
        "mg/mL",
        "mg/dL",
        "U/mL",
        "g/L",
        "titer"
      ],
      "role": "Qualifier",
      "relationship": {
        "subject": "ISORRESU",
        "linkingPhrase": "is the unit for the value in",
        "predicateTerm": "IS_UNIT_FOR",
        "object": "ISORRES"
      },
      "mandatoryVariable": false,
      "mandatoryValue": false,
      "vlmTarget": true
    },
    {
      "name": "ISSTRESC",
      "dataElementConceptId": "C70856",
      "isNonStandard": false,
      "role": "Qualifier",
      "dataType": "float",
      "length": 8,
      "format": "8.3",
      "significantDigits": 3,
      "relationship": {
        "subject": "ISSTRESC",
        "linkingPhrase": "is the result of the test in",
        "predicateTerm": "IS_RESULT_OF",
        "object": "ISTESTCD"
      },
      "mandatoryVariable": true,
      "mandatoryValue": false,
      "originType": "Collected",
      "originSource": "Investigator",
      "vlmTarget": true
    },
    {
      "name": "ISSTRESN",
      "dataElementConceptId": "C70856",
      "isNonStandard": false,
      "role": "Qualifier",
      "dataType": "float",
      "length": 8,
      "format": "8.3",
      "significantDigits": 3,
      "relationship": {
        "subject": "ISSTRESN",
        "linkingPhrase": "is the result of the test in",
        "predicateTerm": "IS_RESULT_OF",
        "object": "ISTESTCD"
      },
      "mandatoryVariable": true,
      "mandatoryValue": false,
      "originType": "Collected",
      "originSource": "Investigator",
      "vlmTarget": true
    },
    {
      "name": "ISSTRESU",
      "isNonStandard": false,
      "codelist": {
        "conceptId": "C71620",
        "submissionValue": "UNIT",
        "href": "https://evsexplore.semantics.cancer.gov/evsexplore/concept/ncit/C71620"
      },
      "assignedTerm": {
        "conceptId": "C77607",
        "value": "U/mL"
      },
      "role": "Qualifier",
      "relationship": {
        "subject": "ISSTRESU",
        "linkingPhrase": "is the unit for the value in",
        "predicateTerm": "IS_UNIT_FOR",
        "object": "ISORRES"
      },
      "mandatoryVariable": false,
      "mandatoryValue": false,
      "vlmTarget": true
    },
    {
      "name": "ISSPEC",
      "dataElementConceptId": "C70713",
      "isNonStandard": false,
      "codelist": {
        "conceptId": "C78734",
        "submissionValue": "SPECTYPE",
        "href": "https://evsexplore.semantics.cancer.gov/evsexplore/concept/ncit/C78734"
      },
      "valueList": [
        "SERUM",
        "SERUM OR PLASMA",
        "BLOOD"
      ],
      "role": "Qualifier",
      "relationship": {
        "subject": "ISSPEC",
        "linkingPhrase": "is the specimen tested in",
        "predicateTerm": "IS_SPECIMEN_TESTED_IN",
        "object": "ISTESTCD"
      },
      "mandatoryVariable": false,
      "mandatoryValue": false,
      "comparator": "IN"
    },
    {
      "name": "ISMETHOD",
      "dataElementConceptId": "C82535",
      "isNonStandard": false,
      "codelist": {
        "conceptId": "C85492",
        "submissionValue": "METHOD",
        "href": "https://evsexplore.semantics.cancer.gov/evsexplore/concept/ncit/C85492"
      },
      "valueList": [
        "IMMUNOASSAY",
        "RIA",
        "ELISA"
      ],
      "role": "Qualifier",
      "relationship": {
        "subject": "ISMETHOD",
        "linkingPhrase": "is the method for the test in",
        "predicateTerm": "SPECIFIES",
        "object": "ISTESTCD"
      },
      "mandatoryVariable": false,
      "mandatoryValue": false,
      "comparator": "IN"
    },
    {
      "name": "ISDTC",
      "dataElementConceptId": "C82515",
      "isNonStandard": false,
      "role": "Timing",
      "relationship": {
        "subject": "ISDTC",
        "linkingPhrase": "is the start date for",
        "predicateTerm": "IS_TIMING_FOR",
        "object": "ISTESTCD"
      },
      "mandatoryVariable": true,
      "mandatoryValue": false
    }
  ]
}
