{
  "_links": {
    "parentBiomedicalConcept": {
      "href": "/mdr/bc/biomedicalconcepts/C200145",
      "title": "Solicited Medical History",
      "type": "Biomedical Concept"
    },
    "parentPackage": {
      "href": "/mdr/specializations/sdtm/packages/2025-12-16/datasetspecializations",
      "title": "SDTM Dataset Specialization Package Effective 2025-12-16",
      "type": "SDTM Dataset Specialization Package"
    },
    "self": {
      "href": "/mdr/specializations/sdtm/datasetspecializations/MEDHISTFREE",
      "title": "Medical History Free Text Format",
      "type": "SDTM Dataset Specialization"
    }
  },
  "datasetSpecializationId": "MEDHISTFREE",
  "domain": "MH",
  "shortName": "Medical History Free Text Format",
  "source": "MH.MHTERM",
  "sdtmigStartVersion": "3-2",
  "sdtmigEndVersion": "",
  "variables": [
    {
      "name": "MHTERM",
      "dataElementConceptId": "C83118",
      "isNonStandard": false,
      "role": "Topic",
      "dataType": "text",
      "length": 200,
      "relationship": {
        "subject": "MHTERM",
        "linkingPhrase": "is original text for",
        "predicateTerm": "IS_ORIGINAL_TEXT_FOR",
        "object": "MHDECOD"
      },
      "mandatoryVariable": true,
      "mandatoryValue": true,
      "originType": "Collected",
      "originSource": "Investigator"
    },
    {
      "name": "MHDECOD",
      "dataElementConceptId": "C83346",
      "isNonStandard": false,
      "role": "Qualifier",
      "dataType": "text",
      "length": 200,
      "relationship": {
        "subject": "MHDECOD",
        "linkingPhrase": "is a dictionary-derived term for the value in",
        "predicateTerm": "IS_DERIVED_FROM",
        "object": "MHTERM"
      },
      "mandatoryVariable": true,
      "mandatoryValue": false,
      "originType": "Assigned",
      "originSource": "Sponsor"
    },
    {
      "name": "MHCAT",
      "dataElementConceptId": "C25372",
      "isNonStandard": false,
      "role": "Qualifier",
      "dataType": "text",
      "length": 200,
      "relationship": {
        "subject": "MHCAT",
        "linkingPhrase": "groups values in",
        "predicateTerm": "GROUPS",
        "object": "MHTERM"
      },
      "mandatoryVariable": false,
      "mandatoryValue": false,
      "originType": "Assigned",
      "originSource": "Sponsor"
    },
    {
      "name": "MHSCAT",
      "dataElementConceptId": "C25692",
      "isNonStandard": false,
      "role": "Qualifier",
      "dataType": "text",
      "length": 200,
      "relationship": {
        "subject": "MHSCAT",
        "linkingPhrase": "values are grouped by",
        "predicateTerm": "IS_GROUPED_BY",
        "object": "MHCAT"
      },
      "mandatoryVariable": false,
      "mandatoryValue": false,
      "originType": "Assigned",
      "originSource": "Sponsor"
    },
    {
      "name": "MHSTDTC",
      "dataElementConceptId": "C83338",
      "isNonStandard": false,
      "role": "Timing",
      "dataType": "datetime",
      "relationship": {
        "subject": "MHSTDTC",
        "linkingPhrase": "is the start date for",
        "predicateTerm": "IS_TIMING_FOR",
        "object": "MHTERM"
      },
      "mandatoryVariable": false,
      "mandatoryValue": false,
      "originType": "Collected",
      "originSource": "Investigator"
    },
    {
      "name": "MHENDTC",
      "dataElementConceptId": "C83330",
      "isNonStandard": false,
      "role": "Timing",
      "dataType": "datetime",
      "relationship": {
        "subject": "MHENDTC",
        "linkingPhrase": "is the end date for",
        "predicateTerm": "IS_TIMING_FOR",
        "object": "MHTERM"
      },
      "mandatoryVariable": false,
      "mandatoryValue": false,
      "originType": "Collected",
      "originSource": "Investigator"
    },
    {
      "name": "MHENRF",
      "dataElementConceptId": "C82557",
      "isNonStandard": false,
      "codelist": {
        "conceptId": "C66728",
        "submissionValue": "STENRF",
        "href": "https://evsexplore.semantics.cancer.gov/evsexplore/concept/ncit/C66728"
      },
      "role": "Timing",
      "dataType": "text",
      "length": 20,
      "mandatoryVariable": false,
      "mandatoryValue": false,
      "originType": "Assigned",
      "originSource": "Sponsor"
    },
    {
      "name": "MHENRTPT",
      "dataElementConceptId": "C82558",
      "isNonStandard": false,
      "codelist": {
        "conceptId": "C66728",
        "submissionValue": "STENRF",
        "href": "https://evsexplore.semantics.cancer.gov/evsexplore/concept/ncit/C66728"
      },
      "role": "Timing",
      "dataType": "text",
      "length": 20,
      "mandatoryVariable": false,
      "mandatoryValue": false,
      "originType": "Assigned",
      "originSource": "Sponsor"
    },
    {
      "name": "MHENTPT",
      "dataElementConceptId": "C82574",
      "isNonStandard": false,
      "role": "Timing",
      "dataType": "text",
      "length": 20,
      "mandatoryVariable": false,
      "mandatoryValue": false,
      "originType": "Assigned",
      "originSource": "Sponsor"
    }
  ]
}
