{
  "_links": {
    "parentBiomedicalConcept": {
      "href": "/mdr/bc/biomedicalconcepts/C200145",
      "title": "Solicited Medical History",
      "type": "Biomedical Concept"
    },
    "parentPackage": {
      "href": "/mdr/specializations/sdtm/packages/2025-07-01/datasetspecializations",
      "title": "SDTM Dataset Specialization Package Effective 2025-07-01",
      "type": "SDTM Dataset Specialization Package"
    },
    "self": {
      "href": "/mdr/specializations/sdtm/datasetspecializations/MHESSENTIALTREMOR",
      "title": "Medical History Prespecified: Essential Tremor",
      "type": "SDTM Dataset Specialization"
    }
  },
  "datasetSpecializationId": "MHESSENTIALTREMOR",
  "domain": "MH",
  "shortName": "Medical History Prespecified: Essential Tremor",
  "source": "MH.MHTERM",
  "sdtmigStartVersion": "3-2",
  "sdtmigEndVersion": "",
  "variables": [
    {
      "name": "MHTERM",
      "dataElementConceptId": "C83118",
      "isNonStandard": false,
      "assignedTerm": {
        "value": "ESSENTIAL TREMOR"
      },
      "role": "Topic",
      "dataType": "text",
      "length": 200,
      "relationship": {
        "subject": "MHTERM",
        "linkingPhrase": "is original text for",
        "predicateTerm": "IS_ORIGINAL_TEXT_FOR",
        "object": "MHDECOD"
      },
      "mandatoryVariable": true,
      "mandatoryValue": true,
      "originType": "Assigned",
      "originSource": "Sponsor"
    },
    {
      "name": "MHDECOD",
      "dataElementConceptId": "C83346",
      "isNonStandard": false,
      "assignedTerm": {
        "value": "ESSENTIAL TREMOR"
      },
      "role": "Qualifier",
      "dataType": "text",
      "length": 200,
      "relationship": {
        "subject": "MHDECOD",
        "linkingPhrase": "is a dictionary-derived term for the value in",
        "predicateTerm": "IS_DERIVED_FROM",
        "object": "MHTERM"
      },
      "mandatoryVariable": true,
      "mandatoryValue": false,
      "originType": "Assigned",
      "originSource": "Sponsor"
    },
    {
      "name": "MHPTCD",
      "isNonStandard": false,
      "assignedTerm": {
        "value": "10015496"
      },
      "role": "Qualifier",
      "dataType": "integer",
      "length": 8,
      "mandatoryVariable": false,
      "mandatoryValue": false,
      "originType": "Assigned",
      "originSource": "Sponsor"
    },
    {
      "name": "MHLLT",
      "isNonStandard": false,
      "assignedTerm": {
        "value": "ESSENTIAL TREMOR"
      },
      "role": "Qualifier",
      "dataType": "text",
      "length": 200,
      "mandatoryVariable": false,
      "mandatoryValue": false,
      "originType": "Assigned",
      "originSource": "Sponsor"
    },
    {
      "name": "MHLLTCD",
      "isNonStandard": false,
      "assignedTerm": {
        "value": "10015496"
      },
      "role": "Qualifier",
      "dataType": "integer",
      "length": 8,
      "mandatoryVariable": false,
      "mandatoryValue": false,
      "originType": "Assigned",
      "originSource": "Sponsor"
    },
    {
      "name": "MHCAT",
      "dataElementConceptId": "C25372",
      "isNonStandard": false,
      "assignedTerm": {
        "value": "ALZHEIMER'S DISEASE"
      },
      "role": "Qualifier",
      "dataType": "text",
      "length": 200,
      "relationship": {
        "subject": "MHCAT",
        "linkingPhrase": "groups values in",
        "predicateTerm": "GROUPS",
        "object": "MHTERM"
      },
      "mandatoryVariable": false,
      "mandatoryValue": false,
      "originType": "Assigned",
      "originSource": "Sponsor"
    },
    {
      "name": "MHSCAT",
      "dataElementConceptId": "C25692",
      "isNonStandard": false,
      "assignedTerm": {
        "value": "CLINICAL FEATURES OF ALZHEIMER'S DISEASE"
      },
      "role": "Qualifier",
      "dataType": "text",
      "length": 200,
      "relationship": {
        "subject": "MHSCAT",
        "linkingPhrase": "values are grouped by",
        "predicateTerm": "IS_GROUPED_BY",
        "object": "MHCAT"
      },
      "mandatoryVariable": false,
      "mandatoryValue": false,
      "originType": "Assigned",
      "originSource": "Sponsor"
    },
    {
      "name": "MHPRESP",
      "dataElementConceptId": "C171000",
      "isNonStandard": false,
      "codelist": {
        "conceptId": "C66742",
        "submissionValue": "NY",
        "href": "https://evsexplore.semantics.cancer.gov/evsexplore/concept/ncit/C66742"
      },
      "subsetCodelist": "NY_Y",
      "valueList": [
        "Y"
      ],
      "role": "Qualifier",
      "dataType": "text",
      "length": 1,
      "relationship": {
        "subject": "MHPRESP",
        "linkingPhrase": "indicates pre-specification of the value in",
        "predicateTerm": "IS_INDICATOR_FOR",
        "object": "MHTERM"
      },
      "mandatoryVariable": true,
      "mandatoryValue": true,
      "originType": "Assigned",
      "originSource": "Sponsor"
    },
    {
      "name": "MHOCCUR",
      "dataElementConceptId": "C127786",
      "isNonStandard": false,
      "codelist": {
        "conceptId": "C66742",
        "submissionValue": "NY",
        "href": "https://evsexplore.semantics.cancer.gov/evsexplore/concept/ncit/C66742"
      },
      "subsetCodelist": "NY_NY",
      "valueList": [
        "N",
        "Y"
      ],
      "role": "Qualifier",
      "dataType": "text",
      "length": 1,
      "relationship": {
        "subject": "MHOCCUR",
        "linkingPhrase": "indicates occurrence of the value in",
        "predicateTerm": "IS_INDICATOR_FOR",
        "object": "MHTERM"
      },
      "mandatoryVariable": true,
      "mandatoryValue": false,
      "originType": "Collected",
      "originSource": "Investigator"
    },
    {
      "name": "MHENRF",
      "dataElementConceptId": "C82557",
      "isNonStandard": false,
      "codelist": {
        "conceptId": "C66728",
        "submissionValue": "STENRF",
        "href": "https://evsexplore.semantics.cancer.gov/evsexplore/concept/ncit/C66728"
      },
      "valueList": [
        "BEFORE",
        "DURING",
        "DURING/AFTER",
        "AFTER",
        "UNKNOWN"
      ],
      "role": "Timing",
      "dataType": "text",
      "length": 20,
      "mandatoryVariable": false,
      "mandatoryValue": false,
      "originType": "Assigned",
      "originSource": "Sponsor"
    },
    {
      "name": "MHENRTPT",
      "dataElementConceptId": "C82558",
      "isNonStandard": false,
      "codelist": {
        "conceptId": "C66728",
        "submissionValue": "STENRF",
        "href": "https://evsexplore.semantics.cancer.gov/evsexplore/concept/ncit/C66728"
      },
      "valueList": [
        "BEFORE",
        "COINCIDENT",
        "AFTER",
        "ONGOING",
        "UNKNOWN"
      ],
      "role": "Timing",
      "dataType": "text",
      "length": 20,
      "mandatoryVariable": false,
      "mandatoryValue": false,
      "originType": "Assigned",
      "originSource": "Sponsor"
    },
    {
      "name": "MHENTPT",
      "dataElementConceptId": "C82574",
      "isNonStandard": false,
      "role": "Timing",
      "dataType": "text",
      "length": 20,
      "mandatoryVariable": false,
      "mandatoryValue": false,
      "originType": "Assigned",
      "originSource": "Sponsor"
    }
  ]
}
