{
  "_links": {
    "parentBiomedicalConcept": {
      "href": "/mdr/bc/biomedicalconcepts/C111280",
      "title": "Myocardial Infarction ECG Assessment",
      "type": "Biomedical Concept"
    },
    "parentPackage": {
      "href": "/mdr/specializations/sdtm/packages/2025-12-16/datasetspecializations",
      "title": "SDTM Dataset Specialization Package Effective 2025-12-16",
      "type": "SDTM Dataset Specialization Package"
    },
    "self": {
      "href": "/mdr/specializations/sdtm/datasetspecializations/MI",
      "title": "Myocardial Infarction ECG Assessment",
      "type": "SDTM Dataset Specialization"
    }
  },
  "datasetSpecializationId": "MI",
  "domain": "EG",
  "shortName": "Myocardial Infarction ECG Assessment",
  "source": "EG.EGTESTCD",
  "sdtmigStartVersion": "3-2",
  "sdtmigEndVersion": "",
  "variables": [
    {
      "name": "EGTESTCD",
      "isNonStandard": false,
      "codelist": {
        "conceptId": "C71153",
        "submissionValue": "EGTESTCD",
        "href": "https://evsexplore.semantics.cancer.gov/evsexplore/concept/ncit/C71153"
      },
      "assignedTerm": {
        "conceptId": "C111280",
        "value": "MI"
      },
      "role": "Topic",
      "relationship": {
        "subject": "EGTESTCD",
        "linkingPhrase": "is the code for the value in",
        "predicateTerm": "IS_DECODED_BY",
        "object": "EGTEST"
      },
      "mandatoryVariable": true,
      "mandatoryValue": true,
      "comparator": "EQ"
    },
    {
      "name": "EGTEST",
      "isNonStandard": false,
      "codelist": {
        "conceptId": "C71152",
        "submissionValue": "EGTEST",
        "href": "https://evsexplore.semantics.cancer.gov/evsexplore/concept/ncit/C71152"
      },
      "assignedTerm": {
        "conceptId": "C111280",
        "value": "Myocardial Infarction"
      },
      "role": "Qualifier",
      "relationship": {
        "subject": "EGTEST",
        "linkingPhrase": "decodes the value in",
        "predicateTerm": "DECODES",
        "object": "EGTESTCD"
      },
      "mandatoryVariable": true,
      "mandatoryValue": true
    },
    {
      "name": "EGORRES",
      "dataElementConceptId": "C70856",
      "isNonStandard": false,
      "role": "Qualifier",
      "dataType": "text",
      "length": 100,
      "relationship": {
        "subject": "EGORRES",
        "linkingPhrase": "is the result of the test in",
        "predicateTerm": "IS_RESULT_OF",
        "object": "EGTESTCD"
      },
      "mandatoryVariable": true,
      "mandatoryValue": false,
      "originType": "Collected",
      "vlmTarget": true
    },
    {
      "name": "EGSTRESC",
      "dataElementConceptId": "C70856",
      "isNonStandard": false,
      "codelist": {
        "conceptId": "C71150",
        "submissionValue": "EGSTRESC",
        "href": "https://evsexplore.semantics.cancer.gov/evsexplore/concept/ncit/C71150"
      },
      "subsetCodelist": "EGSTRESC_MI",
      "valueList": [
        "ACUTE ANTERIOR WALL MYOCARDIAL INFARCTION",
        "ACUTE ANTEROLATERAL WALL MYOCARDIAL INFARCTION",
        "ACUTE ANTEROSEPTAL WALL MYOCARDIAL INFARCTION",
        "ACUTE EXTENSIVE ANTERIOR WALL MYOCARDIAL INFARCTION",
        "ACUTE HIGH LATERAL WALL MYOCARDIAL INFARCTION",
        "ACUTE INFERIOR WALL MYOCARDIAL INFARCTION",
        "ACUTE LATERAL WALL MYOCARDIAL INFARCTION",
        "ACUTE MYOCARDIAL INFARCTION",
        "ACUTE POSTERIOR WALL MYOCARDIAL INFARCTION",
        "ACUTE RIGHT VENTRICULAR WALL MYOCARDIAL INFARCTION",
        "ACUTE SEPTAL WALL MYOCARDIAL INFARCTION",
        "ANTERIOR WALL MYOCARDIAL INFARCTION",
        "ANTEROLATERAL WALL MYOCARDIAL INFARCTION",
        "ANTEROSEPTAL WALL MYOCARDIAL INFARCTION",
        "EXTENSIVE ANTERIOR WALL MYOCARDIAL INFARCTION",
        "HIGH LATERAL WALL MYOCARDIAL INFARCTION",
        "INFERIOR WALL MYOCARDIAL INFARCTION",
        "LATERAL WALL MYOCARDIAL INFARCTION",
        "MYOCARDIAL INFARCTION",
        "NEW ANTERIOR WALL MYOCARDIAL INFARCTION",
        "NEW ANTEROLATERAL WALL MYOCARDIAL INFARCTION",
        "NEW ANTEROSEPTAL WALL MYOCARDIAL INFARCTION",
        "NEW EXTENSIVE ANTERIOR WALL MYOCARDIAL INFARCTION",
        "NEW HIGH LATERAL WALL MYOCARDIAL INFARCTION",
        "NEW INFERIOR WALL MYOCARDIAL INFARCTION",
        "NEW LATERAL WALL MYOCARDIAL INFARCTION",
        "NEW MYOCARDIAL INFARCTION",
        "NEW POSTERIOR WALL MYOCARDIAL INFARCTION",
        "NEW SEPTAL WALL MYOCARDIAL INFARCTION",
        "NON Q WAVE MYOCARDIAL INFARCTION",
        "NON-DIAGNOSTIC Q WAVES",
        "OLD OR AGE INDETERMINATE ANTERIOR WALL MYOCARDIAL INFARCTION",
        "OLD OR AGE INDETERMINATE ANTEROLATERAL WALL MYOCARDIAL INFARCTION",
        "OLD OR AGE INDETERMINATE ANTEROSEPTAL WALL MYOCARDIAL INFARCTION",
        "OLD OR AGE INDETERMINATE EXTENSIVE ANTERIOR WALL MYOCARDIAL INFARCTION",
        "OLD OR AGE INDETERMINATE HIGH LATERAL WALL MYOCARDIAL INFARCTION",
        "OLD OR AGE INDETERMINATE INFERIOR WALL MYOCARDIAL INFARCTION",
        "OLD OR AGE INDETERMINATE LATERAL WALL MYOCARDIAL INFARCTION",
        "OLD OR AGE INDETERMINATE POSTERIOR WALL MYOCARDIAL INFARCTION",
        "OLD OR AGE INDETERMINATE SEPTAL WALL MYOCARDIAL INFARCTION",
        "OLD OR AGE INDETERMINATE WALL MYOCARDIAL INFARCTION",
        "OLD OR AGE UNDETERMINED RIGHT VENTRICULAR MYOCARDIAL INFARCTION",
        "POSTERIOR WALL MYOCARDIAL INFARCTION",
        "SEPTAL MYOCARDIAL INFARCTION"
      ],
      "role": "Qualifier",
      "dataType": "text",
      "length": 100,
      "relationship": {
        "subject": "EGSTRESC",
        "linkingPhrase": "is the result of the test in",
        "predicateTerm": "IS_RESULT_OF",
        "object": "EGTESTCD"
      },
      "mandatoryVariable": true,
      "mandatoryValue": false,
      "originType": "Collected",
      "vlmTarget": true
    },
    {
      "name": "EGCAT",
      "dataElementConceptId": "C25372",
      "isNonStandard": false,
      "assignedTerm": {
        "value": "FINDING"
      },
      "role": "Qualifier",
      "relationship": {
        "subject": "EGCAT",
        "linkingPhrase": "groups values in",
        "predicateTerm": "GROUPS",
        "object": "EGTESTCD"
      },
      "mandatoryVariable": false,
      "mandatoryValue": false,
      "comparator": "EQ"
    },
    {
      "name": "EGPOS",
      "dataElementConceptId": "C62164",
      "isNonStandard": false,
      "codelist": {
        "conceptId": "C71148",
        "submissionValue": "POSITION",
        "href": "https://evsexplore.semantics.cancer.gov/evsexplore/concept/ncit/C71148"
      },
      "role": "Qualifier",
      "relationship": {
        "subject": "EGPOS",
        "linkingPhrase": "was the subject position during performance of the test in",
        "predicateTerm": "IS_SUBJECT_STATE_FOR",
        "object": "EGTESTCD"
      },
      "mandatoryVariable": false,
      "mandatoryValue": false
    },
    {
      "name": "EGMETHOD",
      "dataElementConceptId": "C82535",
      "isNonStandard": false,
      "codelist": {
        "conceptId": "C71151",
        "submissionValue": "EGMETHOD",
        "href": "https://evsexplore.semantics.cancer.gov/evsexplore/concept/ncit/C71151"
      },
      "role": "Qualifier",
      "relationship": {
        "subject": "EGMETHOD",
        "linkingPhrase": "is the method for the test in",
        "predicateTerm": "SPECIFIES",
        "object": "EGTESTCD"
      },
      "mandatoryVariable": true,
      "mandatoryValue": false
    },
    {
      "name": "EGEVAL",
      "dataElementConceptId": "C51824",
      "isNonStandard": false,
      "codelist": {
        "conceptId": "C78735",
        "submissionValue": "EVAL",
        "href": "https://evsexplore.semantics.cancer.gov/evsexplore/concept/ncit/C78735"
      },
      "subsetCodelist": "EVAL_EG",
      "valueList": [
        "ADJUDICATION COMMITTEE",
        "INDEPENDENT ASSESSOR",
        "INVESTIGATOR",
        "VENDOR"
      ],
      "role": "Qualifier",
      "relationship": {
        "subject": "EGEVAL",
        "linkingPhrase": "is the role of the assessor who performed the test in",
        "predicateTerm": "PERFORMS",
        "object": "EGTESTCD"
      },
      "mandatoryVariable": false,
      "mandatoryValue": false,
      "comparator": "IN"
    },
    {
      "name": "EGDTC",
      "isNonStandard": false,
      "role": "Timing",
      "relationship": {
        "subject": "EGDTC",
        "linkingPhrase": "is the date of occurrence for",
        "predicateTerm": "IS_TIMING_FOR",
        "object": "EGTESTCD"
      },
      "mandatoryVariable": true,
      "mandatoryValue": false
    }
  ]
}
