{
  "_links": {
    "parentBiomedicalConcept": {
      "href": "/mdr/bc/biomedicalconcepts/C139233",
      "title": "Medical Research Council Manual Muscle Test Score, Dorsiflexion",
      "type": "Biomedical Concept"
    },
    "parentPackage": {
      "href": "/mdr/specializations/sdtm/packages/2025-12-16/datasetspecializations",
      "title": "SDTM Dataset Specialization Package Effective 2025-12-16",
      "type": "SDTM Dataset Specialization Package"
    },
    "self": {
      "href": "/mdr/specializations/sdtm/datasetspecializations/MMTDORS",
      "title": "MRC MMT Score, Dorsiflexion",
      "type": "SDTM Dataset Specialization"
    }
  },
  "datasetSpecializationId": "MMTDORS",
  "domain": "MK",
  "shortName": "MRC MMT Score, Dorsiflexion",
  "source": "MK.MKTESTCD",
  "sdtmigStartVersion": "3-3",
  "sdtmigEndVersion": "",
  "variables": [
    {
      "name": "MKTESTCD",
      "isNonStandard": false,
      "codelist": {
        "conceptId": "C127269",
        "submissionValue": "MUSCTSCD",
        "href": "https://evsexplore.semantics.cancer.gov/evsexplore/concept/ncit/C127269"
      },
      "assignedTerm": {
        "conceptId": "C139233",
        "value": "MMTDORS"
      },
      "role": "Topic",
      "relationship": {
        "subject": "MKTESTCD",
        "linkingPhrase": "is the code for the value in",
        "predicateTerm": "IS_DECODED_BY",
        "object": "MKTEST"
      },
      "mandatoryVariable": true,
      "mandatoryValue": true,
      "comparator": "EQ"
    },
    {
      "name": "MKTEST",
      "isNonStandard": false,
      "codelist": {
        "conceptId": "C127270",
        "submissionValue": "MUSCTS",
        "href": "https://evsexplore.semantics.cancer.gov/evsexplore/concept/ncit/C127270"
      },
      "assignedTerm": {
        "conceptId": "C139233",
        "value": "MRC MMT Score, Dorsiflexion"
      },
      "role": "Qualifier",
      "relationship": {
        "subject": "MKTEST",
        "linkingPhrase": "decodes the value in",
        "predicateTerm": "DECODES",
        "object": "MKTESTCD"
      },
      "mandatoryVariable": true,
      "mandatoryValue": true
    },
    {
      "name": "MKORRES",
      "dataElementConceptId": "C91106",
      "isNonStandard": false,
      "valueList": [
        "0 No visible or palpable contraction",
        "1 Visible or palpable contraction without motion",
        "2 Full range of motion, gravity eliminated",
        "3 Full range of motion against gravity",
        "4 Full range of motion against gravity, moderate resistance",
        "5 Full range of motion against gravity, maximal resistance"
      ],
      "role": "Qualifier",
      "dataType": "integer",
      "length": 8,
      "relationship": {
        "subject": "MKORRES",
        "linkingPhrase": "is the result of the test in",
        "predicateTerm": "IS_RESULT_OF",
        "object": "MKTESTCD"
      },
      "mandatoryVariable": true,
      "mandatoryValue": false,
      "originType": "Collected",
      "originSource": "Investigator",
      "vlmTarget": true
    },
    {
      "name": "MKSTRESC",
      "dataElementConceptId": "C46126",
      "isNonStandard": false,
      "valueList": [
        "0",
        "1",
        "2",
        "3",
        "4",
        "5"
      ],
      "role": "Qualifier",
      "dataType": "integer",
      "length": 8,
      "relationship": {
        "subject": "MKSTRESC",
        "linkingPhrase": "is the result of the test in",
        "predicateTerm": "IS_RESULT_OF",
        "object": "MKTESTCD"
      },
      "mandatoryVariable": true,
      "mandatoryValue": false,
      "originType": "Collected",
      "originSource": "Investigator",
      "vlmTarget": true
    },
    {
      "name": "MKSTRESN",
      "dataElementConceptId": "C46126",
      "isNonStandard": false,
      "valueList": [
        "0",
        "1",
        "2",
        "3",
        "4",
        "5"
      ],
      "role": "Qualifier",
      "dataType": "integer",
      "length": 8,
      "relationship": {
        "subject": "MKSTRESN",
        "linkingPhrase": "is the result of the test in",
        "predicateTerm": "IS_RESULT_OF",
        "object": "MKTESTCD"
      },
      "mandatoryVariable": true,
      "mandatoryValue": false,
      "originType": "Collected",
      "originSource": "Investigator",
      "vlmTarget": true
    },
    {
      "name": "MKLOC",
      "dataElementConceptId": "C13717",
      "isNonStandard": false,
      "codelist": {
        "conceptId": "C74456",
        "submissionValue": "LOC",
        "href": "https://evsexplore.semantics.cancer.gov/evsexplore/concept/ncit/C74456"
      },
      "role": "Qualifier",
      "relationship": {
        "subject": "MKLOC",
        "linkingPhrase": "specifies the anatomical location of the performance of the test in",
        "predicateTerm": "SPECIFIES",
        "object": "MKTESTCD"
      },
      "mandatoryVariable": false,
      "mandatoryValue": false
    },
    {
      "name": "MKLAT",
      "dataElementConceptId": "C25185",
      "isNonStandard": false,
      "codelist": {
        "conceptId": "C99073",
        "submissionValue": "LAT",
        "href": "https://evsexplore.semantics.cancer.gov/evsexplore/concept/ncit/C99073"
      },
      "valueList": [
        "RIGHT",
        "LEFT"
      ],
      "role": "Qualifier",
      "relationship": {
        "subject": "MKLAT",
        "linkingPhrase": "further specifies the anatomical location in",
        "predicateTerm": "SPECIFIES",
        "object": "MKLOC"
      },
      "mandatoryVariable": false,
      "mandatoryValue": false,
      "comparator": "IN"
    },
    {
      "name": "MKDTC",
      "dataElementConceptId": "C82515",
      "isNonStandard": false,
      "role": "Timing",
      "relationship": {
        "subject": "MKDTC",
        "linkingPhrase": "is the date of occurrence for",
        "predicateTerm": "IS_TIMING_FOR",
        "object": "MKTESTCD"
      },
      "mandatoryVariable": true,
      "mandatoryValue": false,
      "originType": "Collected",
      "originSource": "Investigator"
    }
  ]
}
