{
  "_links": {
    "parentBiomedicalConcept": {
      "href": "/mdr/bc/biomedicalconcepts/C60832",
      "title": "Oxygen Saturation Measurement",
      "type": "Biomedical Concept"
    },
    "parentPackage": {
      "href": "/mdr/specializations/sdtm/packages/2025-04-01/datasetspecializations",
      "title": "SDTM Dataset Specialization Package Effective 2025-04-01",
      "type": "SDTM Dataset Specialization Package"
    },
    "self": {
      "href": "/mdr/specializations/sdtm/datasetspecializations/OXYSAT",
      "title": "Oxygen Saturation",
      "type": "SDTM Dataset Specialization"
    }
  },
  "datasetSpecializationId": "OXYSAT",
  "domain": "VS",
  "shortName": "Oxygen Saturation",
  "source": "VS.VSTESTCD",
  "sdtmigStartVersion": "3-2",
  "sdtmigEndVersion": "",
  "variables": [
    {
      "name": "VSTESTCD",
      "isNonStandard": false,
      "codelist": {
        "conceptId": "C66741",
        "submissionValue": "VSTESTCD",
        "href": "https://evsexplore.semantics.cancer.gov/evsexplore/concept/ncit/C66741"
      },
      "assignedTerm": {
        "conceptId": "C60832",
        "value": "OXYSAT"
      },
      "role": "Topic",
      "relationship": {
        "subject": "VSTESTCD",
        "linkingPhrase": "is the code for the value in",
        "predicateTerm": "IS_DECODED_BY",
        "object": "VSTEST"
      },
      "mandatoryVariable": true,
      "mandatoryValue": false,
      "comparator": "EQ"
    },
    {
      "name": "VSTEST",
      "isNonStandard": false,
      "codelist": {
        "conceptId": "C67153",
        "submissionValue": "VSTEST",
        "href": "https://evsexplore.semantics.cancer.gov/evsexplore/concept/ncit/C67153"
      },
      "assignedTerm": {
        "conceptId": "C60832",
        "value": "Oxygen Saturation"
      },
      "role": "Qualifier",
      "relationship": {
        "subject": "VSTEST",
        "linkingPhrase": "decodes the value in",
        "predicateTerm": "DECODES",
        "object": "VSTESTCD"
      },
      "mandatoryVariable": true,
      "mandatoryValue": false
    },
    {
      "name": "VSORRES",
      "dataElementConceptId": "C70856",
      "isNonStandard": false,
      "role": "Qualifier",
      "dataType": "integer",
      "length": 3,
      "relationship": {
        "subject": "VSORRES",
        "linkingPhrase": "is the result of the test in",
        "predicateTerm": "IS_RESULT_OF",
        "object": "VSTESTCD"
      },
      "mandatoryVariable": true,
      "mandatoryValue": false,
      "originType": "Collected",
      "originSource": "Investigator",
      "vlmTarget": true
    },
    {
      "name": "VSORRESU",
      "dataElementConceptId": "C48570",
      "isNonStandard": false,
      "codelist": {
        "conceptId": "C66770",
        "submissionValue": "VSRESU",
        "href": "https://evsexplore.semantics.cancer.gov/evsexplore/concept/ncit/C66770"
      },
      "valueList": [
        "%",
        "fraction of 1"
      ],
      "role": "Qualifier",
      "relationship": {
        "subject": "VSORRESU",
        "linkingPhrase": "is the unit for the value in",
        "predicateTerm": "IS_UNIT_FOR",
        "object": "VSORRES"
      },
      "mandatoryVariable": true,
      "mandatoryValue": false,
      "vlmTarget": true
    },
    {
      "name": "VSSTRESC",
      "dataElementConceptId": "C70856",
      "isNonStandard": false,
      "role": "Qualifier",
      "dataType": "integer",
      "length": 3,
      "relationship": {
        "subject": "VSSTRESC",
        "linkingPhrase": "is the result of the test in",
        "predicateTerm": "IS_RESULT_OF",
        "object": "VSTESTCD"
      },
      "mandatoryVariable": false,
      "mandatoryValue": false,
      "vlmTarget": true
    },
    {
      "name": "VSSTRESN",
      "dataElementConceptId": "C70856",
      "isNonStandard": false,
      "role": "Qualifier",
      "dataType": "integer",
      "length": 3,
      "relationship": {
        "subject": "VSSTRESN",
        "linkingPhrase": "is the result of the test in",
        "predicateTerm": "IS_RESULT_OF",
        "object": "VSTESTCD"
      },
      "mandatoryVariable": false,
      "mandatoryValue": false,
      "vlmTarget": true
    },
    {
      "name": "VSSTRESU",
      "dataElementConceptId": "C48570",
      "isNonStandard": false,
      "codelist": {
        "conceptId": "C66770",
        "submissionValue": "VSRESU",
        "href": "https://evsexplore.semantics.cancer.gov/evsexplore/concept/ncit/C66770"
      },
      "assignedTerm": {
        "conceptId": "C105484",
        "value": "fraction of 1"
      },
      "role": "Qualifier",
      "relationship": {
        "subject": "VSSTRESU",
        "linkingPhrase": "is the unit for the value in",
        "predicateTerm": "IS_UNIT_FOR",
        "object": "VSSTRESN"
      },
      "mandatoryVariable": false,
      "mandatoryValue": false,
      "vlmTarget": true
    },
    {
      "name": "VSMETHOD",
      "dataElementConceptId": "C82535",
      "isNonStandard": false,
      "codelist": {
        "conceptId": "C85492",
        "submissionValue": "METHOD",
        "href": "https://evsexplore.semantics.cancer.gov/evsexplore/concept/ncit/C85492"
      },
      "assignedTerm": {
        "conceptId": "C38085",
        "value": "PULSE OXIMETRY"
      },
      "role": "Qualifier",
      "relationship": {
        "subject": "VSMETHOD",
        "linkingPhrase": "is the method for the test in",
        "predicateTerm": "SPECIFIES",
        "object": "VSTESTCD"
      },
      "mandatoryVariable": false,
      "mandatoryValue": false,
      "comparator": "EQ"
    },
    {
      "name": "VSLOC",
      "dataElementConceptId": "C13717",
      "isNonStandard": false,
      "codelist": {
        "conceptId": "C74456",
        "submissionValue": "LOC",
        "href": "https://evsexplore.semantics.cancer.gov/evsexplore/concept/ncit/C74456"
      },
      "valueList": [
        "EARLOBE",
        "FINGER"
      ],
      "role": "Qualifier",
      "relationship": {
        "subject": "VSLOC",
        "linkingPhrase": "specifies the anatomical location of the performance of the test in",
        "predicateTerm": "SPECIFIES",
        "object": "VSTESTCD"
      },
      "mandatoryVariable": false,
      "mandatoryValue": false,
      "comparator": "IN"
    },
    {
      "name": "VSLAT",
      "dataElementConceptId": "C25185",
      "isNonStandard": false,
      "codelist": {
        "conceptId": "C99073",
        "submissionValue": "LAT",
        "href": "https://evsexplore.semantics.cancer.gov/evsexplore/concept/ncit/C99073"
      },
      "valueList": [
        "LEFT",
        "RIGHT"
      ],
      "role": "Qualifier",
      "relationship": {
        "subject": "VSLAT",
        "linkingPhrase": "further specifies the anatomical location in",
        "predicateTerm": "SPECIFIES",
        "object": "VSLOC"
      },
      "mandatoryVariable": false,
      "mandatoryValue": false,
      "comparator": "IN"
    },
    {
      "name": "VSDTC",
      "dataElementConceptId": "C82515",
      "isNonStandard": false,
      "role": "Timing",
      "relationship": {
        "subject": "VSDTC",
        "linkingPhrase": "is the date of occurrence for",
        "predicateTerm": "IS_TIMING_FOR",
        "object": "VSTESTCD"
      },
      "mandatoryVariable": true,
      "mandatoryValue": false
    }
  ]
}
