{
  "_links": {
    "parentBiomedicalConcept": {
      "href": "/mdr/bc/biomedicalconcepts/NEW_LZZT3",
      "title": "TTS Acceptability Survey -  Patch Durability",
      "type": "Biomedical Concept"
    },
    "parentPackage": {
      "href": "/mdr/specializations/sdtm/packages/2025-12-16/datasetspecializations",
      "title": "SDTM Dataset Specialization Package Effective 2025-12-16",
      "type": "SDTM Dataset Specialization Package"
    },
    "self": {
      "href": "/mdr/specializations/sdtm/datasetspecializations/PATCHSURVEYDURABILITY",
      "title": "TTS Acceptability Survey - Patch Durability",
      "type": "SDTM Dataset Specialization"
    }
  },
  "datasetSpecializationId": "PATCHSURVEYDURABILITY",
  "domain": "QS",
  "shortName": "TTS Acceptability Survey - Patch Durability",
  "source": "QS.QSTESTCD",
  "sdtmigStartVersion": "3-2",
  "sdtmigEndVersion": "",
  "variables": [
    {
      "name": "QSTESTCD",
      "isNonStandard": false,
      "assignedTerm": {
        "value": "TTSACC03"
      },
      "role": "Topic",
      "relationship": {
        "subject": "QSTESTCD",
        "linkingPhrase": "is the code for the value in",
        "predicateTerm": "IS_DECODED_BY",
        "object": "QSTEST"
      },
      "mandatoryVariable": true,
      "mandatoryValue": true,
      "originType": "Assigned",
      "originSource": "Sponsor",
      "comparator": "EQ"
    },
    {
      "name": "QSTEST",
      "isNonStandard": false,
      "assignedTerm": {
        "value": "TTSACC03 - Durability"
      },
      "role": "Qualifier",
      "relationship": {
        "subject": "QSTEST",
        "linkingPhrase": "decodes the value in",
        "predicateTerm": "DECODES",
        "object": "QSTESTCD"
      },
      "mandatoryVariable": true,
      "mandatoryValue": true,
      "originType": "Assigned",
      "originSource": "Sponsor"
    },
    {
      "name": "QSCAT",
      "isNonStandard": false,
      "codelist": {
        "conceptId": "C100129",
        "submissionValue": "QSCAT",
        "href": "https://evsexplore.semantics.cancer.gov/evsexplore/concept/ncit/C100129"
      },
      "assignedTerm": {
        "value": "TTS ACCEPTABILITY SURVEY - LZZT"
      },
      "role": "Qualifier",
      "relationship": {
        "subject": "QSCAT",
        "linkingPhrase": "groups values in",
        "predicateTerm": "GROUPS",
        "object": "QSTESTCD"
      },
      "mandatoryVariable": true,
      "mandatoryValue": true,
      "originType": "Assigned",
      "originSource": "Sponsor",
      "comparator": "EQ"
    },
    {
      "name": "QSORRES",
      "dataElementConceptId": "C46126",
      "isNonStandard": false,
      "valueList": [
        "1 Strongly Disagree",
        "2",
        "3",
        "4 Neutral",
        "5",
        "6",
        "7 Strongly Agree"
      ],
      "role": "Qualifier",
      "dataType": "text",
      "length": 200,
      "relationship": {
        "subject": "QSORRES",
        "linkingPhrase": "is the result of the test in",
        "predicateTerm": "IS_RESULT_OF",
        "object": "QSTESTCD"
      },
      "mandatoryVariable": true,
      "mandatoryValue": false,
      "originType": "Collected",
      "originSource": "Investigator",
      "vlmTarget": true
    },
    {
      "name": "QSSTRESC",
      "dataElementConceptId": "C91106",
      "isNonStandard": false,
      "valueList": [
        "1",
        "2",
        "3",
        "4",
        "5",
        "6",
        "7"
      ],
      "role": "Qualifier",
      "dataType": "integer",
      "length": 1,
      "relationship": {
        "subject": "QSSTRESC",
        "linkingPhrase": "is the result of the test in",
        "predicateTerm": "IS_RESULT_OF",
        "object": "QSTESTCD"
      },
      "mandatoryVariable": true,
      "mandatoryValue": false,
      "originType": "Collected",
      "originSource": "Investigator",
      "vlmTarget": true
    },
    {
      "name": "QSSTRESN",
      "dataElementConceptId": "C91106",
      "isNonStandard": false,
      "valueList": [
        "1",
        "2",
        "3",
        "4",
        "5",
        "6",
        "7"
      ],
      "role": "Qualifier",
      "dataType": "integer",
      "length": 1,
      "relationship": {
        "subject": "QSSTRESN",
        "linkingPhrase": "is the result of the test in",
        "predicateTerm": "IS_RESULT_OF",
        "object": "QSTESTCD"
      },
      "mandatoryVariable": true,
      "mandatoryValue": false,
      "originType": "Collected",
      "originSource": "Investigator",
      "vlmTarget": true
    },
    {
      "name": "QSEVAL",
      "dataElementConceptId": "C51824",
      "isNonStandard": false,
      "codelist": {
        "conceptId": "C78735",
        "submissionValue": "EVAL",
        "href": "https://evsexplore.semantics.cancer.gov/evsexplore/concept/ncit/C78735"
      },
      "assignedTerm": {
        "conceptId": "C17445",
        "value": "CAREGIVER"
      },
      "role": "Topic",
      "relationship": {
        "subject": "QSEVAL",
        "linkingPhrase": "is the role of the assessor who performed the test in",
        "predicateTerm": "PERFORMS",
        "object": "QSTEST"
      },
      "mandatoryVariable": true,
      "mandatoryValue": false,
      "originType": "Assigned",
      "originSource": "Sponsor",
      "comparator": "EQ"
    },
    {
      "name": "QSDTC",
      "dataElementConceptId": "C82515",
      "isNonStandard": false,
      "role": "Timing",
      "relationship": {
        "subject": "QSDTC",
        "linkingPhrase": "is the date of occurrence for",
        "predicateTerm": "IS_TIMING_FOR",
        "object": "QSTESTCD"
      },
      "mandatoryVariable": true,
      "mandatoryValue": false,
      "originType": "Collected",
      "originSource": "Investigator"
    }
  ]
}
