{
  "_links": {
    "parentBiomedicalConcept": {
      "href": "/mdr/bc/biomedicalconcepts/C100945",
      "title": "Pulse Pressure",
      "type": "Biomedical Concept"
    },
    "parentPackage": {
      "href": "/mdr/specializations/sdtm/packages/2026-03-31/datasetspecializations",
      "title": "SDTM Dataset Specialization Package Effective 2026-03-31",
      "type": "SDTM Dataset Specialization Package"
    },
    "self": {
      "href": "/mdr/specializations/sdtm/datasetspecializations/PULSEPR",
      "title": "Pulse Pressure",
      "type": "SDTM Dataset Specialization"
    }
  },
  "datasetSpecializationId": "PULSEPR",
  "domain": "VS",
  "shortName": "Pulse Pressure",
  "source": "VS.VSTESTCD",
  "sdtmigStartVersion": "3-2",
  "sdtmigEndVersion": "",
  "variables": [
    {
      "name": "VSTESTCD",
      "isNonStandard": false,
      "codelist": {
        "conceptId": "C66741",
        "submissionValue": "VSTESTCD",
        "href": "https://evsexplore.semantics.cancer.gov/evsexplore/concept/ncit/C66741"
      },
      "assignedTerm": {
        "conceptId": "C100945",
        "value": "PULSEPR"
      },
      "role": "Topic",
      "relationship": {
        "subject": "VSTESTCD",
        "linkingPhrase": "is the code for the value in",
        "predicateTerm": "IS_DECODED_BY",
        "object": "VSTEST"
      },
      "mandatoryVariable": true,
      "mandatoryValue": true,
      "comparator": "EQ"
    },
    {
      "name": "VSTEST",
      "isNonStandard": false,
      "codelist": {
        "conceptId": "C67153",
        "submissionValue": "VSTEST",
        "href": "https://evsexplore.semantics.cancer.gov/evsexplore/concept/ncit/C67153"
      },
      "assignedTerm": {
        "conceptId": "C100945",
        "value": "Pulse Pressure"
      },
      "role": "Qualifier",
      "relationship": {
        "subject": "VSTEST",
        "linkingPhrase": "decodes the value in",
        "predicateTerm": "DECODES",
        "object": "VSTESTCD"
      },
      "mandatoryVariable": true,
      "mandatoryValue": true
    },
    {
      "name": "VSORRES",
      "dataElementConceptId": "C70856",
      "isNonStandard": false,
      "role": "Qualifier",
      "dataType": "float",
      "length": 8,
      "format": "8.3",
      "significantDigits": 3,
      "relationship": {
        "subject": "VSORRES",
        "linkingPhrase": "is the result of the test in",
        "predicateTerm": "IS_RESULT_OF",
        "object": "VSTESTCD"
      },
      "mandatoryVariable": true,
      "mandatoryValue": false,
      "originType": "Collected",
      "originSource": "Investigator",
      "vlmTarget": true
    },
    {
      "name": "VSORRESU",
      "dataElementConceptId": "C49669",
      "isNonStandard": false,
      "codelist": {
        "conceptId": "C66770",
        "submissionValue": "VSRESU",
        "href": "https://evsexplore.semantics.cancer.gov/evsexplore/concept/ncit/C66770"
      },
      "valueList": [
        "mmHg"
      ],
      "role": "Qualifier",
      "relationship": {
        "subject": "VSORRESU",
        "linkingPhrase": "is the unit for the value in",
        "predicateTerm": "IS_UNIT_FOR",
        "object": "VSORRES"
      },
      "mandatoryVariable": true,
      "mandatoryValue": false,
      "vlmTarget": true
    },
    {
      "name": "VSSTRESC",
      "dataElementConceptId": "C70856",
      "isNonStandard": false,
      "role": "Qualifier",
      "dataType": "float",
      "length": 8,
      "format": "8.3",
      "significantDigits": 3,
      "relationship": {
        "subject": "VSSTRESC",
        "linkingPhrase": "is the result of the test in",
        "predicateTerm": "IS_RESULT_OF",
        "object": "VSTESTCD"
      },
      "mandatoryVariable": false,
      "mandatoryValue": false,
      "vlmTarget": true
    },
    {
      "name": "VSSTRESN",
      "dataElementConceptId": "C70856",
      "isNonStandard": false,
      "role": "Qualifier",
      "dataType": "float",
      "length": 8,
      "format": "8.3",
      "significantDigits": 3,
      "relationship": {
        "subject": "VSSTRESN",
        "linkingPhrase": "is the result of the test in",
        "predicateTerm": "IS_RESULT_OF",
        "object": "VSTESTCD"
      },
      "mandatoryVariable": false,
      "mandatoryValue": false,
      "vlmTarget": true
    },
    {
      "name": "VSSTRESU",
      "dataElementConceptId": "C49669",
      "isNonStandard": false,
      "codelist": {
        "conceptId": "C66770",
        "submissionValue": "VSRESU",
        "href": "https://evsexplore.semantics.cancer.gov/evsexplore/concept/ncit/C66770"
      },
      "valueList": [
        "mmHg"
      ],
      "role": "Qualifier",
      "relationship": {
        "subject": "VSSTRESU",
        "linkingPhrase": "is the unit for the value in",
        "predicateTerm": "IS_UNIT_FOR",
        "object": "VSSTRESN"
      },
      "mandatoryVariable": false,
      "mandatoryValue": false,
      "vlmTarget": true
    },
    {
      "name": "VSPOS",
      "dataElementConceptId": "C62164",
      "isNonStandard": false,
      "codelist": {
        "conceptId": "C71148",
        "submissionValue": "POSITION",
        "href": "https://evsexplore.semantics.cancer.gov/evsexplore/concept/ncit/C71148"
      },
      "valueList": [
        "DECUBITUS",
        "FOWLERS",
        "LATERAL DECUBITUS",
        "LEFT LATERAL DECUBITUS",
        "PRONE",
        "REVERSE TRENDELENBURG",
        "RIGHT LATERAL DECUBITUS",
        "SEMI-FOWLERS",
        "SEMI-RECUMBENT",
        "SITTING",
        "SITTING",
        "LEGS DEPENDENT",
        "SLING",
        "STANDING",
        "STANDING",
        "BENT FORWARD",
        "SUPINE",
        "TRENDELENBURG",
        "UNCONSTRAINED"
      ],
      "role": "Qualifier",
      "relationship": {
        "subject": "VSPOS",
        "linkingPhrase": "is the subject position during performance of the test in",
        "predicateTerm": "IS_SUBJECT_STATE_FOR",
        "object": "VSTESTCD"
      },
      "mandatoryVariable": false,
      "mandatoryValue": false,
      "comparator": "IN"
    },
    {
      "name": "VSDTC",
      "dataElementConceptId": "C82515",
      "isNonStandard": false,
      "role": "Timing",
      "relationship": {
        "subject": "VSDTC",
        "linkingPhrase": "is the date of occurrence for",
        "predicateTerm": "IS_TIMING_FOR",
        "object": "VSTESTCD"
      },
      "mandatoryVariable": true,
      "mandatoryValue": false
    }
  ]
}
