{
  "_links": {
    "parentBiomedicalConcept": {
      "href": "/mdr/bc/biomedicalconcepts/C117788",
      "title": "Single Beat QT Interval",
      "type": "Biomedical Concept"
    },
    "parentPackage": {
      "href": "/mdr/specializations/sdtm/packages/2025-12-16/datasetspecializations",
      "title": "SDTM Dataset Specialization Package Effective 2025-12-16",
      "type": "SDTM Dataset Specialization Package"
    },
    "self": {
      "href": "/mdr/specializations/sdtm/datasetspecializations/QTSB",
      "title": "QT Interval, Single Beat",
      "type": "SDTM Dataset Specialization"
    }
  },
  "datasetSpecializationId": "QTSB",
  "domain": "EG",
  "shortName": "QT Interval, Single Beat",
  "source": "EG.EGTESTCD",
  "sdtmigStartVersion": "3-2",
  "sdtmigEndVersion": "",
  "variables": [
    {
      "name": "EGTESTCD",
      "isNonStandard": false,
      "codelist": {
        "conceptId": "C71153",
        "submissionValue": "EGTESTCD",
        "href": "https://evsexplore.semantics.cancer.gov/evsexplore/concept/ncit/C71153"
      },
      "assignedTerm": {
        "conceptId": "C117788",
        "value": "QTSB"
      },
      "role": "Topic",
      "relationship": {
        "subject": "EGTESTCD",
        "linkingPhrase": "is the code for the value in",
        "predicateTerm": "IS_DECODED_BY",
        "object": "EGTEST"
      },
      "mandatoryVariable": true,
      "mandatoryValue": true,
      "comparator": "EQ"
    },
    {
      "name": "EGTEST",
      "isNonStandard": false,
      "codelist": {
        "conceptId": "C71152",
        "submissionValue": "EGTEST",
        "href": "https://evsexplore.semantics.cancer.gov/evsexplore/concept/ncit/C71152"
      },
      "assignedTerm": {
        "conceptId": "C117788",
        "value": "QT Interval, Single Beat"
      },
      "role": "Qualifier",
      "relationship": {
        "subject": "EGTEST",
        "linkingPhrase": "decodes the value in",
        "predicateTerm": "DECODES",
        "object": "EGTESTCD"
      },
      "mandatoryVariable": true,
      "mandatoryValue": true
    },
    {
      "name": "EGORRES",
      "dataElementConceptId": "C25330",
      "isNonStandard": false,
      "role": "Qualifier",
      "dataType": "text",
      "length": 8,
      "format": "8.3",
      "significantDigits": 3,
      "relationship": {
        "subject": "EGORRES",
        "linkingPhrase": "is the result of the test in",
        "predicateTerm": "IS_RESULT_OF",
        "object": "EGTESTCD"
      },
      "mandatoryVariable": true,
      "mandatoryValue": false,
      "originType": "Collected",
      "vlmTarget": true
    },
    {
      "name": "EGORRESU",
      "dataElementConceptId": "C42574",
      "isNonStandard": false,
      "codelist": {
        "conceptId": "C71620",
        "submissionValue": "UNIT",
        "href": "https://evsexplore.semantics.cancer.gov/evsexplore/concept/ncit/C71620"
      },
      "valueList": [
        "ms",
        "s"
      ],
      "role": "Qualifier",
      "relationship": {
        "subject": "EGORRESU",
        "linkingPhrase": "is the unit for the value in",
        "predicateTerm": "IS_UNIT_FOR",
        "object": "EGORRES"
      },
      "mandatoryVariable": true,
      "mandatoryValue": false,
      "vlmTarget": true
    },
    {
      "name": "EGSTRESC",
      "dataElementConceptId": "C25330",
      "isNonStandard": false,
      "role": "Qualifier",
      "dataType": "text",
      "length": 8,
      "format": "8.3",
      "significantDigits": 3,
      "relationship": {
        "subject": "EGSTRESC",
        "linkingPhrase": "is the result of the test in",
        "predicateTerm": "IS_RESULT_OF",
        "object": "EGTESTCD"
      },
      "mandatoryVariable": true,
      "mandatoryValue": false,
      "originType": "Collected",
      "vlmTarget": true
    },
    {
      "name": "EGSTRESN",
      "dataElementConceptId": "C25330",
      "isNonStandard": false,
      "role": "Qualifier",
      "dataType": "float",
      "length": 8,
      "format": "8.3",
      "significantDigits": 3,
      "relationship": {
        "subject": "EGSTRESN",
        "linkingPhrase": "is the result of the test in",
        "predicateTerm": "IS_RESULT_OF",
        "object": "EGTESTCD"
      },
      "mandatoryVariable": true,
      "mandatoryValue": false,
      "originType": "Collected",
      "vlmTarget": true
    },
    {
      "name": "EGSTRESU",
      "dataElementConceptId": "C42574",
      "isNonStandard": false,
      "codelist": {
        "conceptId": "C71620",
        "submissionValue": "UNIT",
        "href": "https://evsexplore.semantics.cancer.gov/evsexplore/concept/ncit/C71620"
      },
      "assignedTerm": {
        "conceptId": "C41140",
        "value": "ms"
      },
      "role": "Qualifier",
      "relationship": {
        "subject": "EGSTRESU",
        "linkingPhrase": "is the unit for the value in",
        "predicateTerm": "IS_UNIT_FOR",
        "object": "EGSTRESN"
      },
      "mandatoryVariable": true,
      "mandatoryValue": false,
      "vlmTarget": true
    },
    {
      "name": "EGCAT",
      "dataElementConceptId": "C25372",
      "isNonStandard": false,
      "assignedTerm": {
        "value": "INTERVAL"
      },
      "role": "Qualifier",
      "relationship": {
        "subject": "EGCAT",
        "linkingPhrase": "groups values in",
        "predicateTerm": "GROUPS",
        "object": "EGTESTCD"
      },
      "mandatoryVariable": false,
      "mandatoryValue": false,
      "comparator": "EQ"
    },
    {
      "name": "EGPOS",
      "dataElementConceptId": "C62164",
      "isNonStandard": false,
      "codelist": {
        "conceptId": "C71148",
        "submissionValue": "POSITION",
        "href": "https://evsexplore.semantics.cancer.gov/evsexplore/concept/ncit/C71148"
      },
      "role": "Qualifier",
      "relationship": {
        "subject": "EGPOS",
        "linkingPhrase": "was the subject position during performance of the test in",
        "predicateTerm": "IS_SUBJECT_STATE_FOR",
        "object": "EGTESTCD"
      },
      "mandatoryVariable": false,
      "mandatoryValue": false
    },
    {
      "name": "EGMETHOD",
      "dataElementConceptId": "C82535",
      "isNonStandard": false,
      "codelist": {
        "conceptId": "C71151",
        "submissionValue": "EGMETHOD",
        "href": "https://evsexplore.semantics.cancer.gov/evsexplore/concept/ncit/C71151"
      },
      "role": "Qualifier",
      "relationship": {
        "subject": "EGMETHOD",
        "linkingPhrase": "is the method for the test in",
        "predicateTerm": "SPECIFIES",
        "object": "EGTESTCD"
      },
      "mandatoryVariable": true,
      "mandatoryValue": false
    },
    {
      "name": "EGEVAL",
      "dataElementConceptId": "C51824",
      "isNonStandard": false,
      "codelist": {
        "conceptId": "C78735",
        "submissionValue": "EVAL",
        "href": "https://evsexplore.semantics.cancer.gov/evsexplore/concept/ncit/C78735"
      },
      "subsetCodelist": "EVAL_EG",
      "valueList": [
        "ADJUDICATION COMMITTEE",
        "INDEPENDENT ASSESSOR",
        "INVESTIGATOR",
        "VENDOR"
      ],
      "role": "Qualifier",
      "relationship": {
        "subject": "EGEVAL",
        "linkingPhrase": "is the role of the assessor who performed the test in",
        "predicateTerm": "PERFORMS",
        "object": "EGTESTCD"
      },
      "mandatoryVariable": false,
      "mandatoryValue": false,
      "comparator": "IN"
    },
    {
      "name": "EGDTC",
      "dataElementConceptId": "C82515",
      "isNonStandard": false,
      "role": "Timing",
      "relationship": {
        "subject": "EGDTC",
        "linkingPhrase": "is the date of occurrence for",
        "predicateTerm": "IS_TIMING_FOR",
        "object": "EGTESTCD"
      },
      "mandatoryVariable": true,
      "mandatoryValue": false
    },
    {
      "name": "EGENDTC",
      "dataElementConceptId": "C82516",
      "isNonStandard": false,
      "role": "Timing",
      "relationship": {
        "subject": "EGENDTC",
        "linkingPhrase": "is the end date for",
        "predicateTerm": "IS_TIMING_FOR",
        "object": "EGTESTCD"
      },
      "mandatoryVariable": false,
      "mandatoryValue": false
    }
  ]
}
