{
  "_links": {
    "parentBiomedicalConcept": {
      "href": "/mdr/bc/biomedicalconcepts/C191153",
      "title": "Rutgeerts Score - Rutgeerts Score",
      "type": "Biomedical Concept"
    },
    "parentPackage": {
      "href": "/mdr/specializations/sdtm/packages/2025-12-16/datasetspecializations",
      "title": "SDTM Dataset Specialization Package Effective 2025-12-16",
      "type": "SDTM Dataset Specialization Package"
    },
    "self": {
      "href": "/mdr/specializations/sdtm/datasetspecializations/RUTG0101",
      "title": "RUTG01-Rutgeerts Score",
      "type": "SDTM Dataset Specialization"
    }
  },
  "datasetSpecializationId": "RUTG0101",
  "domain": "RS",
  "shortName": "RUTG01-Rutgeerts Score",
  "source": "RS.RSTESTCD",
  "sdtmigStartVersion": "3-2",
  "sdtmigEndVersion": "",
  "variables": [
    {
      "name": "RSTESTCD",
      "isNonStandard": false,
      "codelist": {
        "conceptId": "C190932",
        "submissionValue": "RUTG01TC",
        "href": "https://evsexplore.semantics.cancer.gov/evsexplore/concept/ncit/C190932"
      },
      "assignedTerm": {
        "conceptId": "C191153",
        "value": "RUTG0101"
      },
      "role": "Topic",
      "relationship": {
        "subject": "RSTESTCD",
        "linkingPhrase": "is the code for the value in",
        "predicateTerm": "IS_DECODED_BY",
        "object": "RSTEST"
      },
      "mandatoryVariable": true,
      "mandatoryValue": true,
      "comparator": "EQ"
    },
    {
      "name": "RSTEST",
      "isNonStandard": false,
      "codelist": {
        "conceptId": "C190931",
        "submissionValue": "RUTG01TN",
        "href": "https://evsexplore.semantics.cancer.gov/evsexplore/concept/ncit/C190931"
      },
      "assignedTerm": {
        "conceptId": "C191153",
        "value": "RUTG01-Rutgeerts Score"
      },
      "role": "Qualifier",
      "relationship": {
        "subject": "RSTEST",
        "linkingPhrase": "decodes the value in",
        "predicateTerm": "DECODES",
        "object": "RSTESTCD"
      },
      "mandatoryVariable": true,
      "mandatoryValue": true
    },
    {
      "name": "RSCAT",
      "dataElementConceptId": "C25372",
      "isNonStandard": false,
      "codelist": {
        "conceptId": "C118971",
        "submissionValue": "CCCAT",
        "href": "https://evsexplore.semantics.cancer.gov/evsexplore/concept/ncit/C118971"
      },
      "assignedTerm": {
        "conceptId": "C191039",
        "value": "RUTGEERTS SCORE"
      },
      "role": "Qualifier",
      "relationship": {
        "subject": "RSCAT",
        "linkingPhrase": "groups values in",
        "predicateTerm": "GROUPS",
        "object": "RSTESTCD"
      },
      "mandatoryVariable": true,
      "mandatoryValue": true,
      "comparator": "EQ"
    },
    {
      "name": "RSORRES",
      "dataElementConceptId": "C91106",
      "isNonStandard": false,
      "codelist": {
        "conceptId": "C190903",
        "submissionValue": "RUTG0101OR",
        "href": "https://evsexplore.semantics.cancer.gov/evsexplore/concept/ncit/C190903"
      },
      "role": "Qualifier",
      "dataType": "text",
      "length": 20,
      "relationship": {
        "subject": "RSORRES",
        "linkingPhrase": "is the result of the test in",
        "predicateTerm": "IS_RESULT_OF",
        "object": "RSTESTCD"
      },
      "mandatoryVariable": true,
      "mandatoryValue": false,
      "originType": "Collected",
      "originSource": "Investigator",
      "vlmTarget": true
    },
    {
      "name": "RSSTRESC",
      "dataElementConceptId": "C46126",
      "isNonStandard": false,
      "codelist": {
        "conceptId": "C190904",
        "submissionValue": "RUTG0101STR",
        "href": "https://evsexplore.semantics.cancer.gov/evsexplore/concept/ncit/C190904"
      },
      "role": "Qualifier",
      "dataType": "integer",
      "length": 1,
      "relationship": {
        "subject": "RSSTRESC",
        "linkingPhrase": "is the result of the test in",
        "predicateTerm": "IS_RESULT_OF",
        "object": "RSTESTCD"
      },
      "mandatoryVariable": true,
      "mandatoryValue": false,
      "originType": "Assigned",
      "originSource": "Sponsor",
      "vlmTarget": true
    },
    {
      "name": "RSDTC",
      "dataElementConceptId": "C82515",
      "isNonStandard": false,
      "role": "Timing",
      "relationship": {
        "subject": "RSDTC",
        "linkingPhrase": "is the date of occurrence for",
        "predicateTerm": "IS_TIMING_FOR",
        "object": "RSTESTCD"
      },
      "mandatoryVariable": true,
      "mandatoryValue": false,
      "originType": "Collected",
      "originSource": "Investigator"
    }
  ]
}
