{
  "_links": {
    "parentBiomedicalConcept": {
      "href": "/mdr/bc/biomedicalconcepts/C115803",
      "title": "6MWT - Distance at 4 Minutes",
      "type": "Biomedical Concept"
    },
    "parentPackage": {
      "href": "/mdr/specializations/sdtm/packages/2025-12-16/datasetspecializations",
      "title": "SDTM Dataset Specialization Package Effective 2025-12-16",
      "type": "SDTM Dataset Specialization Package"
    },
    "self": {
      "href": "/mdr/specializations/sdtm/datasetspecializations/SIXMW104",
      "title": "SIXMW1-Distance at 4 Minute",
      "type": "SDTM Dataset Specialization"
    }
  },
  "datasetSpecializationId": "SIXMW104",
  "domain": "FT",
  "shortName": "SIXMW1-Distance at 4 Minute",
  "source": "FT.FTTESTCD",
  "sdtmigStartVersion": "3-2",
  "sdtmigEndVersion": "",
  "variables": [
    {
      "name": "FTTESTCD",
      "isNonStandard": false,
      "codelist": {
        "conceptId": "C115388",
        "submissionValue": "SIXMW1TC",
        "href": "https://evsexplore.semantics.cancer.gov/evsexplore/concept/ncit/C115388"
      },
      "assignedTerm": {
        "conceptId": "C115803",
        "value": "SIXMW104"
      },
      "role": "Topic",
      "relationship": {
        "subject": "FTTESTCD",
        "linkingPhrase": "is the code for the value in",
        "predicateTerm": "IS_DECODED_BY",
        "object": "FTTEST"
      },
      "mandatoryVariable": true,
      "mandatoryValue": true,
      "comparator": "EQ"
    },
    {
      "name": "FTTEST",
      "isNonStandard": false,
      "codelist": {
        "conceptId": "C115387",
        "submissionValue": "SIXMW1TN",
        "href": "https://evsexplore.semantics.cancer.gov/evsexplore/concept/ncit/C115387"
      },
      "assignedTerm": {
        "conceptId": "C115803",
        "value": "SIXMW1-Distance at 4 Minutes"
      },
      "role": "Qualifier",
      "relationship": {
        "subject": "FTTEST",
        "linkingPhrase": "decodes the value in",
        "predicateTerm": "DECODES",
        "object": "FTTESTCD"
      },
      "mandatoryVariable": true,
      "mandatoryValue": true
    },
    {
      "name": "FTCAT",
      "dataElementConceptId": "C25372",
      "isNonStandard": false,
      "codelist": {
        "conceptId": "C115304",
        "submissionValue": "FTCAT",
        "href": "https://evsexplore.semantics.cancer.gov/evsexplore/concept/ncit/C115304"
      },
      "assignedTerm": {
        "conceptId": "C115789",
        "value": "SIX MINUTE WALK"
      },
      "role": "Qualifier",
      "relationship": {
        "subject": "FTCAT",
        "linkingPhrase": "groups values in",
        "predicateTerm": "GROUPS",
        "object": "FTTESTCD"
      },
      "mandatoryVariable": true,
      "mandatoryValue": true,
      "originType": "Assigned",
      "originSource": "Sponsor",
      "comparator": "EQ"
    },
    {
      "name": "FTORRES",
      "dataElementConceptId": "C91106",
      "isNonStandard": false,
      "role": "Qualifier",
      "dataType": "integer",
      "length": 3,
      "relationship": {
        "subject": "FTORRES",
        "linkingPhrase": "is the result of the test in",
        "predicateTerm": "IS_RESULT_OF",
        "object": "FTTESTCD"
      },
      "mandatoryVariable": true,
      "mandatoryValue": false,
      "originType": "Collected",
      "originSource": "Investigator",
      "vlmTarget": true
    },
    {
      "name": "FTORRESU",
      "dataElementConceptId": "C42578",
      "isNonStandard": false,
      "codelist": {
        "conceptId": "C71620",
        "submissionValue": "UNIT",
        "href": "https://evsexplore.semantics.cancer.gov/evsexplore/concept/ncit/C71620"
      },
      "assignedTerm": {
        "conceptId": "C41139",
        "value": "m"
      },
      "role": "Qualifier",
      "relationship": {
        "subject": "FTORRESU",
        "linkingPhrase": "is the unit for the value in",
        "predicateTerm": "IS_UNIT_FOR",
        "object": "FTORRES"
      },
      "mandatoryVariable": true,
      "mandatoryValue": false,
      "originType": "Collected",
      "originSource": "Investigator",
      "vlmTarget": true
    },
    {
      "name": "FTSTRESC",
      "dataElementConceptId": "C91106",
      "isNonStandard": false,
      "role": "Qualifier",
      "dataType": "integer",
      "length": 3,
      "relationship": {
        "subject": "FTSTRESC",
        "linkingPhrase": "is the result of the test in",
        "predicateTerm": "IS_RESULT_OF",
        "object": "FTTESTCD"
      },
      "mandatoryVariable": true,
      "mandatoryValue": false,
      "originType": "Assigned",
      "originSource": "Sponsor",
      "vlmTarget": true
    },
    {
      "name": "FTSTRESN",
      "dataElementConceptId": "C91106",
      "isNonStandard": false,
      "role": "Qualifier",
      "dataType": "integer",
      "length": 3,
      "relationship": {
        "subject": "FTSTRESN",
        "linkingPhrase": "is the result of the test in",
        "predicateTerm": "IS_RESULT_OF",
        "object": "FTTESTCD"
      },
      "mandatoryVariable": true,
      "mandatoryValue": false,
      "originType": "Assigned",
      "originSource": "Sponsor",
      "vlmTarget": true
    },
    {
      "name": "FTSTRESU",
      "dataElementConceptId": "C42578",
      "isNonStandard": false,
      "codelist": {
        "conceptId": "C71620",
        "submissionValue": "UNIT",
        "href": "https://evsexplore.semantics.cancer.gov/evsexplore/concept/ncit/C71620"
      },
      "assignedTerm": {
        "conceptId": "C41139",
        "value": "m"
      },
      "role": "Qualifier",
      "relationship": {
        "subject": "FTSTRESU",
        "linkingPhrase": "is the unit for the value in",
        "predicateTerm": "IS_UNIT_FOR",
        "object": "FTSTRESN"
      },
      "mandatoryVariable": true,
      "mandatoryValue": false,
      "originType": "Assigned",
      "originSource": "Sponsor",
      "vlmTarget": true
    },
    {
      "name": "FTASTDEV",
      "dataElementConceptId": "C93300",
      "isNonStandard": true,
      "role": "Qualifier",
      "mandatoryVariable": false,
      "mandatoryValue": false,
      "originType": "Collected",
      "originSource": "Investigator"
    },
    {
      "name": "FTDTC",
      "dataElementConceptId": "C82515",
      "isNonStandard": false,
      "role": "Timing",
      "relationship": {
        "subject": "FTDTC",
        "linkingPhrase": "is the date of occurrence for",
        "predicateTerm": "IS_TIMING_FOR",
        "object": "FTTESTCD"
      },
      "mandatoryVariable": true,
      "mandatoryValue": false,
      "originType": "Collected",
      "originSource": "Investigator"
    }
  ]
}
