{
  "_links": {
    "parentBiomedicalConcept": {
      "href": "/mdr/bc/biomedicalconcepts/C179748",
      "title": "Biospecimen Storage",
      "type": "Biomedical Concept"
    },
    "parentPackage": {
      "href": "/mdr/specializations/sdtm/packages/2023-07-06/datasetspecializations",
      "title": "SDTM Dataset Specialization Package Effective 2023-07-06",
      "type": "SDTM Dataset Specialization Package"
    },
    "self": {
      "href": "/mdr/specializations/sdtm/datasetspecializations/STORING",
      "title": "Biospecimen Storage",
      "type": "SDTM Dataset Specialization"
    }
  },
  "datasetSpecializationId": "STORING",
  "domain": "BE",
  "shortName": "Biospecimen Storage",
  "source": "BE.BETERM",
  "sdtmigStartVersion": "3-4",
  "sdtmigEndVersion": "",
  "variables": [
    {
      "name": "BECAT",
      "dataElementConceptId": "C25372",
      "isNonStandard": false,
      "assignedTerm": {
        "value": "STORING"
      },
      "role": "Qualifier",
      "dataType": "text",
      "length": 200,
      "relationship": {
        "subject": "BECAT",
        "linkingPhrase": "groups values in",
        "predicateTerm": "GROUPS",
        "object": "BETERM"
      },
      "mandatoryVariable": false,
      "mandatoryValue": false
    },
    {
      "name": "BEDECOD",
      "dataElementConceptId": "C82977",
      "isNonStandard": false,
      "codelist": {
        "conceptId": "C124297",
        "submissionValue": "BEDECOD",
        "href": "https://evsexplore.semantics.cancer.gov/evsexplore/concept/ncit/C124297"
      },
      "assignedTerm": {
        "conceptId": "C60824",
        "value": "STORING"
      },
      "role": "Qualifier",
      "dataType": "text",
      "length": 200,
      "relationship": {
        "subject": "BEDECOD",
        "linkingPhrase": "is a dictionary-derived term for the value in",
        "predicateTerm": "IS_DERIVED_FROM",
        "object": "BETERM"
      },
      "mandatoryVariable": true,
      "mandatoryValue": false,
      "originType": "Collected",
      "originSource": "Investigator"
    },
    {
      "name": "BETERM",
      "dataElementConceptId": "C82571",
      "isNonStandard": false,
      "assignedTerm": {
        "value": "Storing"
      },
      "role": "Topic",
      "dataType": "text",
      "length": 200,
      "relationship": {
        "subject": "BETERM",
        "linkingPhrase": "is original text for",
        "predicateTerm": "IS_ORIGINAL_TEXT_FOR",
        "object": "BEDECOD"
      },
      "mandatoryVariable": true,
      "mandatoryValue": false
    },
    {
      "name": "BEPARTY",
      "dataElementConceptId": "C117052",
      "isNonStandard": false,
      "codelist": {
        "conceptId": "C189265",
        "submissionValue": "ACCPARTY",
        "href": "https://evsexplore.semantics.cancer.gov/evsexplore/concept/ncit/C189265"
      },
      "role": "Topic",
      "dataType": "text",
      "length": 200,
      "mandatoryVariable": false,
      "mandatoryValue": false
    },
    {
      "name": "BESPEC",
      "dataElementConceptId": "C70713",
      "isNonStandard": true,
      "codelist": {
        "conceptId": "C78734",
        "submissionValue": "SPECTYPE",
        "href": "https://evsexplore.semantics.cancer.gov/evsexplore/concept/ncit/C78734"
      },
      "role": "Topic",
      "dataType": "text",
      "length": 200,
      "relationship": {
        "subject": "BESPEC",
        "linkingPhrase": "is the material type of the subject of the activity in",
        "predicateTerm": "IS_ATTRIBUTE_FOR",
        "object": "BETERM"
      },
      "mandatoryVariable": false,
      "mandatoryValue": false
    }
  ]
}
