{
  "_links": {
    "parentBiomedicalConcept": {
      "href": "/mdr/bc/biomedicalconcepts/C119579",
      "title": "Stroke Type",
      "type": "Biomedical Concept"
    },
    "parentPackage": {
      "href": "/mdr/specializations/sdtm/packages/2024-06-27/datasetspecializations",
      "title": "SDTM Dataset Specialization Package Effective 2024-06-27",
      "type": "SDTM Dataset Specialization Package"
    },
    "self": {
      "href": "/mdr/specializations/sdtm/datasetspecializations/STROKTYP",
      "title": "Stroke Type",
      "type": "SDTM Dataset Specialization"
    }
  },
  "datasetSpecializationId": "STROKTYP",
  "domain": "FA",
  "shortName": "Stroke Type",
  "source": "FA.FATESTCD",
  "sdtmigStartVersion": "3-2",
  "sdtmigEndVersion": "",
  "variables": [
    {
      "name": "FATESTCD",
      "isNonStandard": false,
      "codelist": {
        "conceptId": "C119015",
        "submissionValue": "CVFATSCD",
        "href": "https://evsexplore.semantics.cancer.gov/evsexplore/concept/ncit/C119015"
      },
      "assignedTerm": {
        "conceptId": "C119579",
        "value": "STROKTYP"
      },
      "role": "Topic",
      "relationship": {
        "subject": "FATESTCD",
        "linkingPhrase": "is the code for the value in",
        "predicateTerm": "IS_DECODED_BY",
        "object": "FATEST"
      },
      "mandatoryVariable": true,
      "mandatoryValue": true,
      "comparator": "EQ"
    },
    {
      "name": "FATEST",
      "isNonStandard": false,
      "codelist": {
        "conceptId": "C119014",
        "submissionValue": "CVFATS",
        "href": "https://evsexplore.semantics.cancer.gov/evsexplore/concept/ncit/C119014"
      },
      "assignedTerm": {
        "conceptId": "C119579",
        "value": "Stroke Type"
      },
      "role": "Qualifier",
      "relationship": {
        "subject": "FATEST",
        "linkingPhrase": "decodes the value in",
        "predicateTerm": "DECODES",
        "object": "FATESTCD"
      },
      "mandatoryVariable": true,
      "mandatoryValue": true
    },
    {
      "name": "FAOBJ",
      "dataElementConceptId": "C82546",
      "isNonStandard": false,
      "assignedTerm": {
        "value": "STROKE"
      },
      "role": "Qualifier",
      "relationship": {
        "subject": "FAOBJ",
        "linkingPhrase": "is the object of the observation in",
        "predicateTerm": "IS_ATTRIBUTE_FOR",
        "object": "FATESTCD"
      },
      "mandatoryVariable": true,
      "mandatoryValue": true,
      "comparator": "EQ"
    },
    {
      "name": "FACAT",
      "dataElementConceptId": "C25372",
      "isNonStandard": false,
      "role": "Qualifier",
      "relationship": {
        "subject": "FACAT",
        "linkingPhrase": "groups values in",
        "predicateTerm": "GROUPS",
        "object": "FATESTCD"
      },
      "mandatoryVariable": false,
      "mandatoryValue": false
    },
    {
      "name": "FASCAT",
      "dataElementConceptId": "C25692",
      "isNonStandard": false,
      "role": "Qualifier",
      "relationship": {
        "subject": "FASCAT",
        "linkingPhrase": "values are grouped by",
        "predicateTerm": "IS_GROUPED_BY",
        "object": "FACAT"
      },
      "mandatoryVariable": false,
      "mandatoryValue": false
    },
    {
      "name": "FAORRES",
      "dataElementConceptId": "C70856",
      "isNonStandard": false,
      "codelist": {
        "conceptId": "C119016",
        "submissionValue": "CVFARS",
        "href": "https://evsexplore.semantics.cancer.gov/evsexplore/concept/ncit/C119016"
      },
      "valueList": [
        "HEMORRHAGIC STROKE",
        "ISCHEMIC STROKE",
        "UNDETERMINED STROKE"
      ],
      "role": "Qualifier",
      "dataType": "text",
      "length": 200,
      "relationship": {
        "subject": "FAORRES",
        "linkingPhrase": "is the result of the test in",
        "predicateTerm": "IS_RESULT_OF",
        "object": "FATESTCD"
      },
      "mandatoryVariable": true,
      "mandatoryValue": false,
      "originType": "Collected",
      "originSource": "Vendor",
      "vlmTarget": true
    },
    {
      "name": "FASTRESC",
      "dataElementConceptId": "C70856",
      "isNonStandard": false,
      "codelist": {
        "conceptId": "C119016",
        "submissionValue": "CVFARS",
        "href": "https://evsexplore.semantics.cancer.gov/evsexplore/concept/ncit/C119016"
      },
      "valueList": [
        "HEMORRHAGIC STROKE",
        "ISCHEMIC STROKE",
        "UNDETERMINED STROKE"
      ],
      "role": "Qualifier",
      "dataType": "text",
      "length": 200,
      "relationship": {
        "subject": "FASTRESC",
        "linkingPhrase": "is the result of the test in",
        "predicateTerm": "IS_RESULT_OF",
        "object": "FAORRES"
      },
      "mandatoryVariable": true,
      "mandatoryValue": false,
      "originType": "Collected",
      "originSource": "Vendor",
      "vlmTarget": true
    },
    {
      "name": "FADTC",
      "dataElementConceptId": "C82515",
      "isNonStandard": false,
      "role": "Timing",
      "relationship": {
        "subject": "FADTC",
        "linkingPhrase": "is the date of occurrence for",
        "predicateTerm": "IS_TIMING_FOR",
        "object": "FATESTCD"
      },
      "mandatoryVariable": true,
      "mandatoryValue": false
    },
    {
      "name": "FALNKID",
      "dataElementConceptId": "C117050",
      "isNonStandard": false,
      "role": "Identifier",
      "mandatoryVariable": false,
      "mandatoryValue": false
    }
  ]
}
