{
  "_links": {
    "parentBiomedicalConcept": {
      "href": "/mdr/bc/biomedicalconcepts/C117807",
      "title": "ECG Technical Quality",
      "type": "Biomedical Concept"
    },
    "parentPackage": {
      "href": "/mdr/specializations/sdtm/packages/2025-12-16/datasetspecializations",
      "title": "SDTM Dataset Specialization Package Effective 2025-12-16",
      "type": "SDTM Dataset Specialization Package"
    },
    "self": {
      "href": "/mdr/specializations/sdtm/datasetspecializations/TECHQUAL",
      "title": "ECG Technical Quality",
      "type": "SDTM Dataset Specialization"
    }
  },
  "datasetSpecializationId": "TECHQUAL",
  "domain": "EG",
  "shortName": "ECG Technical Quality",
  "source": "EG.EGTESTCD",
  "sdtmigStartVersion": "3-2",
  "sdtmigEndVersion": "",
  "variables": [
    {
      "name": "EGTESTCD",
      "isNonStandard": false,
      "codelist": {
        "conceptId": "C71153",
        "submissionValue": "EGTESTCD",
        "href": "https://evsexplore.semantics.cancer.gov/evsexplore/concept/ncit/C71153"
      },
      "assignedTerm": {
        "conceptId": "C117807",
        "value": "TECHQUAL"
      },
      "role": "Topic",
      "relationship": {
        "subject": "EGTESTCD",
        "linkingPhrase": "is the code for the value in",
        "predicateTerm": "IS_DECODED_BY",
        "object": "EGTEST"
      },
      "mandatoryVariable": true,
      "mandatoryValue": true,
      "comparator": "EQ"
    },
    {
      "name": "EGTEST",
      "isNonStandard": false,
      "codelist": {
        "conceptId": "C71152",
        "submissionValue": "EGTEST",
        "href": "https://evsexplore.semantics.cancer.gov/evsexplore/concept/ncit/C71152"
      },
      "assignedTerm": {
        "conceptId": "C117807",
        "value": "Technical Quality"
      },
      "role": "Qualifier",
      "relationship": {
        "subject": "EGTEST",
        "linkingPhrase": "decodes the value in",
        "predicateTerm": "DECODES",
        "object": "EGTESTCD"
      },
      "mandatoryVariable": true,
      "mandatoryValue": true
    },
    {
      "name": "EGORRES",
      "dataElementConceptId": "C114120",
      "isNonStandard": false,
      "role": "Qualifier",
      "dataType": "text",
      "length": 100,
      "relationship": {
        "subject": "EGORRES",
        "linkingPhrase": "is the result of the test in",
        "predicateTerm": "IS_RESULT_OF",
        "object": "EGTESTCD"
      },
      "mandatoryVariable": true,
      "mandatoryValue": false,
      "originType": "Collected",
      "vlmTarget": true
    },
    {
      "name": "EGSTRESC",
      "dataElementConceptId": "C114120",
      "isNonStandard": false,
      "codelist": {
        "conceptId": "C71150",
        "submissionValue": "EGSTRESC",
        "href": "https://evsexplore.semantics.cancer.gov/evsexplore/concept/ncit/C71150"
      },
      "subsetCodelist": "EGSTRESC_TECHQUAL",
      "valueList": [
        "50 Hz NOISE",
        "60 Hz NOISE",
        "AC NOISE",
        "ALL PRECORDIAL ELECTRODES DISCONNECTED",
        "ARTIFACT",
        "BASELINE WANDER",
        "ECG ACQUIRED WITH PRECORDIAL ELECTRODES PLACED ON RIGHT CHEST",
        "ECG EVALUATION NOT PERFORMED DUE TO CORRUPTED DIGITAL ECG FILE",
        "ECG EVALUATION NOT PERFORMED DUE TO POOR QUALITY OF PRINTED ECG",
        "ECG EVALUATION NOT PERFORMED DUE TO UNKNOWN ECG AMPLITUDE GAIN OR RECORDING SPEED",
        "INCOMPLETE ECG",
        "INCOMPLETE MEASUREMENTS DUE TO TRUNCATION OF QRS COMPLEXES",
        "INCOMPLETELY DIGITIZED ECG LEAD(S)",
        "INCORRECTLY SCALED ECG",
        "INSUFFICIENT NUMBER OF BEATS TO COMPLETELY EVALUATE ECG",
        "INVALID ECG WAVEFORMS",
        "LIMB ELECTRODE(S) DISCONNECTED",
        "LIMB ELECTRODES INTERCHANGED",
        "LOW AMPLITUDE SIGNAL",
        "MUSCLE TREMOR",
        "NO ECG WAVEFORMS PRESENT",
        "OTHER INCORRECT ELECTRODE PLACEMENT",
        "POOR QUALITY ECG",
        "PRECORDIAL ELECTRODE V1 DISCONNECTED",
        "PRECORDIAL ELECTRODE V2 DISCONNECTED",
        "PRECORDIAL ELECTRODE V3 DISCONNECTED",
        "PRECORDIAL ELECTRODE V4 DISCONNECTED",
        "PRECORDIAL ELECTRODE V5 DISCONNECTED",
        "PRECORDIAL ELECTRODE V6 DISCONNECTED",
        "PRECORDIAL ELECTRODE(S) POSITIONED INCORRECTLY",
        "PRECORDIAL ELECTRODES INTERCHANGED",
        "QUALITY PROBLEM NOT OTHERWISE SPECIFIED",
        "SUSPECT LIMB ELECTRODES REVERSED, INTERPRETATION ASSUMES NO REVERSAL",
        "SUSPECT LIMB ELECTRODES REVERSED, INTERPRETATION ASSUMES REVERSAL",
        "UNABLE TO DIGITIZE ECG LEADS"
      ],
      "role": "Qualifier",
      "dataType": "text",
      "length": 100,
      "relationship": {
        "subject": "EGSTRESC",
        "linkingPhrase": "is the result of the test in",
        "predicateTerm": "IS_RESULT_OF",
        "object": "EGTESTCD"
      },
      "mandatoryVariable": true,
      "mandatoryValue": false,
      "vlmTarget": true
    },
    {
      "name": "EGMETHOD",
      "dataElementConceptId": "C82535",
      "isNonStandard": false,
      "codelist": {
        "conceptId": "C71151",
        "submissionValue": "EGMETHOD",
        "href": "https://evsexplore.semantics.cancer.gov/evsexplore/concept/ncit/C71151"
      },
      "role": "Qualifier",
      "relationship": {
        "subject": "EGMETHOD",
        "linkingPhrase": "is the method for the test in",
        "predicateTerm": "SPECIFIES",
        "object": "EGTESTCD"
      },
      "mandatoryVariable": true,
      "mandatoryValue": false
    },
    {
      "name": "EGEVAL",
      "dataElementConceptId": "C51824",
      "isNonStandard": false,
      "codelist": {
        "conceptId": "C78735",
        "submissionValue": "EVAL",
        "href": "https://evsexplore.semantics.cancer.gov/evsexplore/concept/ncit/C78735"
      },
      "subsetCodelist": "EVAL_EG",
      "valueList": [
        "ADJUDICATION COMMITTEE",
        "INDEPENDENT ASSESSOR",
        "INVESTIGATOR",
        "VENDOR"
      ],
      "role": "Qualifier",
      "relationship": {
        "subject": "EGEVAL",
        "linkingPhrase": "is the role of the assessor who performed the test in",
        "predicateTerm": "PERFORMS",
        "object": "EGTESTCD"
      },
      "mandatoryVariable": false,
      "mandatoryValue": false,
      "comparator": "IN"
    },
    {
      "name": "EGDTC",
      "dataElementConceptId": "C82515",
      "isNonStandard": false,
      "role": "Timing",
      "relationship": {
        "subject": "EGDTC",
        "linkingPhrase": "is the date of occurrence for",
        "predicateTerm": "IS_TIMING_FOR",
        "object": "EGTESTCD"
      },
      "mandatoryVariable": true,
      "mandatoryValue": false
    }
  ]
}
