{
  "_links": {
    "parentBiomedicalConcept": {
      "href": "/mdr/bc/biomedicalconcepts/C174446",
      "title": "Body Temperature",
      "type": "Biomedical Concept"
    },
    "parentPackage": {
      "href": "/mdr/specializations/sdtm/packages/2024-12-16/datasetspecializations",
      "title": "SDTM Dataset Specialization Package Effective 2024-12-16",
      "type": "SDTM Dataset Specialization Package"
    },
    "self": {
      "href": "/mdr/specializations/sdtm/datasetspecializations/TEMP",
      "title": "Temperature",
      "type": "SDTM Dataset Specialization"
    }
  },
  "datasetSpecializationId": "TEMP",
  "domain": "VS",
  "shortName": "Temperature",
  "source": "VS.VSTESTCD",
  "sdtmigStartVersion": "3-2",
  "sdtmigEndVersion": "",
  "variables": [
    {
      "name": "VSTESTCD",
      "isNonStandard": false,
      "codelist": {
        "conceptId": "C66741",
        "submissionValue": "VSTESTCD",
        "href": "https://evsexplore.semantics.cancer.gov/evsexplore/concept/ncit/C66741"
      },
      "assignedTerm": {
        "conceptId": "C174446",
        "value": "TEMP"
      },
      "role": "Topic",
      "relationship": {
        "subject": "VSTESTCD",
        "linkingPhrase": "is the code for the value in",
        "predicateTerm": "IS_DECODED_BY",
        "object": "VSTEST"
      },
      "mandatoryVariable": true,
      "mandatoryValue": false,
      "comparator": "EQ"
    },
    {
      "name": "VSTEST",
      "isNonStandard": false,
      "codelist": {
        "conceptId": "C67153",
        "submissionValue": "VSTEST",
        "href": "https://evsexplore.semantics.cancer.gov/evsexplore/concept/ncit/C67153"
      },
      "assignedTerm": {
        "conceptId": "C174446",
        "value": "Temperature"
      },
      "role": "Qualifier",
      "relationship": {
        "subject": "VSTEST",
        "linkingPhrase": "decodes the value in",
        "predicateTerm": "DECODES",
        "object": "VSTESTCD"
      },
      "mandatoryVariable": true,
      "mandatoryValue": false
    },
    {
      "name": "VSORRES",
      "dataElementConceptId": "C70856",
      "isNonStandard": false,
      "role": "Qualifier",
      "dataType": "float",
      "length": 8,
      "format": "8.3",
      "significantDigits": 3,
      "relationship": {
        "subject": "VSORRES",
        "linkingPhrase": "is the result of the test in",
        "predicateTerm": "IS_RESULT_OF",
        "object": "VSTESTCD"
      },
      "mandatoryVariable": true,
      "mandatoryValue": false,
      "originType": "Collected",
      "originSource": "Investigator",
      "vlmTarget": true
    },
    {
      "name": "VSORRESU",
      "dataElementConceptId": "C44276",
      "isNonStandard": false,
      "codelist": {
        "conceptId": "C66770",
        "submissionValue": "VSRESU",
        "href": "https://evsexplore.semantics.cancer.gov/evsexplore/concept/ncit/C66770"
      },
      "subsetCodelist": "VSRESU_TEMP",
      "valueList": [
        "C",
        "F",
        "K"
      ],
      "role": "Qualifier",
      "relationship": {
        "subject": "VSORRESU",
        "linkingPhrase": "is the unit for the value in",
        "predicateTerm": "IS_UNIT_FOR",
        "object": "VSORRES"
      },
      "mandatoryVariable": true,
      "mandatoryValue": false,
      "vlmTarget": true
    },
    {
      "name": "VSSTRESC",
      "dataElementConceptId": "C70856",
      "isNonStandard": false,
      "role": "Qualifier",
      "dataType": "float",
      "length": 8,
      "format": "8.3",
      "significantDigits": 3,
      "relationship": {
        "subject": "VSSTRESC",
        "linkingPhrase": "is the result of the test in",
        "predicateTerm": "IS_RESULT_OF",
        "object": "VSTESTCD"
      },
      "mandatoryVariable": false,
      "mandatoryValue": false,
      "vlmTarget": true
    },
    {
      "name": "VSSTRESN",
      "dataElementConceptId": "C70856",
      "isNonStandard": false,
      "role": "Qualifier",
      "dataType": "float",
      "length": 8,
      "format": "8.3",
      "significantDigits": 3,
      "relationship": {
        "subject": "VSSTRESN",
        "linkingPhrase": "is the result of the test in",
        "predicateTerm": "IS_RESULT_OF",
        "object": "VSTESTCD"
      },
      "mandatoryVariable": false,
      "mandatoryValue": false,
      "vlmTarget": true
    },
    {
      "name": "VSSTRESU",
      "dataElementConceptId": "C44276",
      "isNonStandard": false,
      "codelist": {
        "conceptId": "C66770",
        "submissionValue": "VSRESU",
        "href": "https://evsexplore.semantics.cancer.gov/evsexplore/concept/ncit/C66770"
      },
      "role": "Qualifier",
      "relationship": {
        "subject": "VSSTRESU",
        "linkingPhrase": "is the unit for the value in",
        "predicateTerm": "IS_UNIT_FOR",
        "object": "VSSTRESN"
      },
      "mandatoryVariable": false,
      "mandatoryValue": false,
      "vlmTarget": true
    },
    {
      "name": "VSLOC",
      "dataElementConceptId": "C13717",
      "isNonStandard": false,
      "codelist": {
        "conceptId": "C74456",
        "submissionValue": "LOC",
        "href": "https://evsexplore.semantics.cancer.gov/evsexplore/concept/ncit/C74456"
      },
      "subsetCodelist": "VSLOC_TEMP",
      "valueList": [
        "AXILLA",
        "EAR",
        "FOREHEAD",
        "ORAL CAVITY",
        "RECTUM"
      ],
      "role": "Qualifier",
      "relationship": {
        "subject": "VSLOC",
        "linkingPhrase": "specifies the anatomical location of the performance of the test in",
        "predicateTerm": "SPECIFIES",
        "object": "VSTESTCD"
      },
      "mandatoryVariable": false,
      "mandatoryValue": false,
      "comparator": "IN"
    },
    {
      "name": "VSDTC",
      "dataElementConceptId": "C82515",
      "isNonStandard": false,
      "role": "Timing",
      "relationship": {
        "subject": "VSDTC",
        "linkingPhrase": "is the date of occurrence for",
        "predicateTerm": "IS_TIMING_FOR",
        "object": "VSTESTCD"
      },
      "mandatoryVariable": true,
      "mandatoryValue": false
    }
  ]
}
