{
  "_links": {
    "parentBiomedicalConcept": {
      "href": "/mdr/bc/biomedicalconcepts/C181335",
      "title": "Tumor Mutation Burden Assessment",
      "type": "Biomedical Concept"
    },
    "parentPackage": {
      "href": "/mdr/specializations/sdtm/packages/2025-07-01/datasetspecializations",
      "title": "SDTM Dataset Specialization Package Effective 2025-07-01",
      "type": "SDTM Dataset Specialization Package"
    },
    "self": {
      "href": "/mdr/specializations/sdtm/datasetspecializations/TMBNUMSEQVAR",
      "title": "Tumor Mutation Burden Number of Sequence Variants",
      "type": "SDTM Dataset Specialization"
    }
  },
  "datasetSpecializationId": "TMBNUMSEQVAR",
  "domain": "GF",
  "shortName": "Tumor Mutation Burden Number of Sequence Variants",
  "source": "GF.GFTESTCD",
  "sdtmigStartVersion": "3-4",
  "sdtmigEndVersion": "",
  "variables": [
    {
      "name": "GFTESTCD",
      "isNonStandard": false,
      "codelist": {
        "conceptId": "C181178",
        "submissionValue": "GFTESTCD",
        "href": "https://evsexplore.semantics.cancer.gov/evsexplore/concept/ncit/C181178"
      },
      "assignedTerm": {
        "conceptId": "C181335",
        "value": "TMB"
      },
      "role": "Topic",
      "relationship": {
        "subject": "GFTESTCD",
        "linkingPhrase": "is the code for the value in",
        "predicateTerm": "IS_DECODED_BY",
        "object": "GFTEST"
      },
      "mandatoryVariable": true,
      "mandatoryValue": true,
      "comparator": "EQ"
    },
    {
      "name": "GFTEST",
      "isNonStandard": false,
      "codelist": {
        "conceptId": "C181179",
        "submissionValue": "GFTEST",
        "href": "https://evsexplore.semantics.cancer.gov/evsexplore/concept/ncit/C181179"
      },
      "assignedTerm": {
        "conceptId": "C181335",
        "value": "Tumor Mutation Burden"
      },
      "role": "Qualifier",
      "relationship": {
        "subject": "GFTEST",
        "linkingPhrase": "decodes the value in",
        "predicateTerm": "DECODES",
        "object": "GFTESTCD"
      },
      "mandatoryVariable": true,
      "mandatoryValue": true
    },
    {
      "name": "GFTSTDTL",
      "dataElementConceptId": "C117062",
      "isNonStandard": false,
      "codelist": {
        "conceptId": "C181180",
        "submissionValue": "GFTSDTL",
        "href": "https://evsexplore.semantics.cancer.gov/evsexplore/concept/ncit/C181180"
      },
      "assignedTerm": {
        "conceptId": "C181350",
        "value": "NUMBER OF SEQUENCE VARIANTS"
      },
      "role": "Qualifier",
      "relationship": {
        "subject": "GFTSTDTL",
        "linkingPhrase": "further describes the test in",
        "predicateTerm": "SPECIFIES",
        "object": "GFTESTCD"
      },
      "mandatoryVariable": false,
      "mandatoryValue": false,
      "comparator": "EQ"
    },
    {
      "name": "GFCAT",
      "dataElementConceptId": "C25372",
      "isNonStandard": false,
      "assignedTerm": {
        "value": "GENETIC VARIATION"
      },
      "role": "Qualifier",
      "relationship": {
        "subject": "GFCAT",
        "linkingPhrase": "groups values in",
        "predicateTerm": "GROUPS",
        "object": "GFTESTCD"
      },
      "mandatoryVariable": false,
      "mandatoryValue": false,
      "comparator": "EQ"
    },
    {
      "name": "GFORRES",
      "dataElementConceptId": "C70856",
      "isNonStandard": false,
      "role": "Qualifier",
      "dataType": "integer",
      "length": 8,
      "relationship": {
        "subject": "GFORRES",
        "linkingPhrase": "is the result of the test in",
        "predicateTerm": "IS_RESULT_OF",
        "object": "GFTESTCD"
      },
      "mandatoryVariable": true,
      "mandatoryValue": false,
      "originType": "Collected",
      "originSource": "Vendor",
      "vlmTarget": true
    },
    {
      "name": "GFSPEC",
      "dataElementConceptId": "C70713",
      "isNonStandard": false,
      "codelist": {
        "conceptId": "C111114",
        "submissionValue": "GENSMP",
        "href": "https://evsexplore.semantics.cancer.gov/evsexplore/concept/ncit/C111114"
      },
      "assignedTerm": {
        "conceptId": "C449",
        "value": "DNA"
      },
      "role": "Qualifier",
      "relationship": {
        "subject": "GFSPEC",
        "linkingPhrase": "is the specimen tested in",
        "predicateTerm": "IS_SPECIMEN_TESTED_IN",
        "object": "GFTESTCD"
      },
      "mandatoryVariable": false,
      "mandatoryValue": false,
      "comparator": "EQ"
    },
    {
      "name": "GFMETHOD",
      "dataElementConceptId": "C82535",
      "isNonStandard": false,
      "codelist": {
        "conceptId": "C85492",
        "submissionValue": "METHOD",
        "href": "https://evsexplore.semantics.cancer.gov/evsexplore/concept/ncit/C85492"
      },
      "assignedTerm": {
        "conceptId": "C101295",
        "value": "WHOLE EXOME SEQUENCING"
      },
      "role": "Qualifier",
      "relationship": {
        "subject": "GFMETHOD",
        "linkingPhrase": "is the method for the test in",
        "predicateTerm": "SPECIFIES",
        "object": "GFTESTCD"
      },
      "mandatoryVariable": true,
      "mandatoryValue": false,
      "comparator": "EQ"
    },
    {
      "name": "GFANMETH",
      "dataElementConceptId": "C117039",
      "isNonStandard": false,
      "codelist": {
        "conceptId": "C181181",
        "submissionValue": "GFANMET",
        "href": "https://evsexplore.semantics.cancer.gov/evsexplore/concept/ncit/C181181"
      },
      "role": "Qualifier",
      "relationship": {
        "subject": "GFANMETH",
        "linkingPhrase": "is the method of secondary analysis of results in",
        "predicateTerm": "SPECIFIES",
        "object": "GFTESTCD"
      },
      "mandatoryVariable": false,
      "mandatoryValue": false
    },
    {
      "name": "GFDTC",
      "dataElementConceptId": "C82515",
      "isNonStandard": false,
      "role": "Timing",
      "relationship": {
        "subject": "GFDTC",
        "linkingPhrase": "is the date of occurrence for",
        "predicateTerm": "IS_TIMING_FOR",
        "object": "GFTESTCD"
      },
      "mandatoryVariable": false,
      "mandatoryValue": false
    },
    {
      "name": "GFSTRESC",
      "dataElementConceptId": "C70856",
      "isNonStandard": false,
      "role": "Qualifier",
      "dataType": "integer",
      "length": 8,
      "relationship": {
        "subject": "GFSTRESC",
        "linkingPhrase": "is the result of the test in",
        "predicateTerm": "IS_RESULT_OF",
        "object": "GFTESTCD"
      },
      "mandatoryVariable": true,
      "mandatoryValue": false,
      "originType": "Collected",
      "originSource": "Vendor",
      "vlmTarget": true
    }
  ]
}
