{
  "_links": {
    "parentBiomedicalConcept": {
      "href": "/mdr/bc/biomedicalconcepts/C198341",
      "title": "Treponema pallidum DNA Measurement",
      "type": "Biomedical Concept"
    },
    "parentPackage": {
      "href": "/mdr/specializations/sdtm/packages/2025-12-16/datasetspecializations",
      "title": "SDTM Dataset Specialization Package Effective 2025-12-16",
      "type": "SDTM Dataset Specialization Package"
    },
    "self": {
      "href": "/mdr/specializations/sdtm/datasetspecializations/TPADNA",
      "title": "Treponema pallidum DNA by Nucleic Acid Amplification",
      "type": "SDTM Dataset Specialization"
    }
  },
  "datasetSpecializationId": "TPADNA",
  "domain": "MB",
  "shortName": "Treponema pallidum DNA by Nucleic Acid Amplification",
  "source": "MB.MBTESTCD",
  "sdtmigStartVersion": "3-3",
  "sdtmigEndVersion": "",
  "variables": [
    {
      "name": "MBTESTCD",
      "isNonStandard": false,
      "codelist": {
        "conceptId": "C120527",
        "submissionValue": "MBTESTCD",
        "href": "https://evsexplore.semantics.cancer.gov/evsexplore/concept/ncit/C120527"
      },
      "assignedTerm": {
        "conceptId": "C198341",
        "value": "TPADNA"
      },
      "role": "Topic",
      "relationship": {
        "subject": "MBTESTCD",
        "linkingPhrase": "is the code for the value in",
        "predicateTerm": "IS_DECODED_BY",
        "object": "MBTEST"
      },
      "mandatoryVariable": true,
      "mandatoryValue": true,
      "comparator": "EQ"
    },
    {
      "name": "MBTEST",
      "isNonStandard": false,
      "codelist": {
        "conceptId": "C120528",
        "submissionValue": "MBTEST",
        "href": "https://evsexplore.semantics.cancer.gov/evsexplore/concept/ncit/C120528"
      },
      "assignedTerm": {
        "conceptId": "C198341",
        "value": "Treponema pallidum DNA"
      },
      "role": "Qualifier",
      "relationship": {
        "subject": "MBTEST",
        "linkingPhrase": "decodes the value in",
        "predicateTerm": "DECODES",
        "object": "MBTESTCD"
      },
      "mandatoryVariable": true,
      "mandatoryValue": true
    },
    {
      "name": "MBTSTDTL",
      "dataElementConceptId": "C117062",
      "isNonStandard": false,
      "codelist": {
        "conceptId": "C174225",
        "submissionValue": "MBFTSDTL",
        "href": "https://evsexplore.semantics.cancer.gov/evsexplore/concept/ncit/C174225"
      },
      "assignedTerm": {
        "conceptId": "C174330",
        "value": "DETECTION"
      },
      "role": "Qualifier",
      "relationship": {
        "subject": "MBTSTDTL",
        "linkingPhrase": "further describes the test in",
        "predicateTerm": "SPECIFIES",
        "object": "MBTESTCD"
      },
      "mandatoryVariable": false,
      "mandatoryValue": false,
      "comparator": "EQ"
    },
    {
      "name": "MBORRES",
      "dataElementConceptId": "C70856",
      "isNonStandard": false,
      "role": "Qualifier",
      "dataType": "text",
      "length": 20,
      "relationship": {
        "subject": "MBORRES",
        "linkingPhrase": "is the result of the test in",
        "predicateTerm": "IS_RESULT_OF",
        "object": "MBTESTCD"
      },
      "mandatoryVariable": true,
      "mandatoryValue": false,
      "vlmTarget": true
    },
    {
      "name": "MBSTRESC",
      "dataElementConceptId": "C70856",
      "isNonStandard": false,
      "role": "Qualifier",
      "dataType": "text",
      "length": 20,
      "relationship": {
        "subject": "MBSTRESC",
        "linkingPhrase": "is the result of the test in",
        "predicateTerm": "IS_RESULT_OF",
        "object": "MBTESTCD"
      },
      "mandatoryVariable": true,
      "mandatoryValue": false,
      "vlmTarget": true
    },
    {
      "name": "MBLOINC",
      "isNonStandard": false,
      "role": "Qualifier",
      "relationship": {
        "subject": "MBLOINC",
        "linkingPhrase": "identifies an observation described by",
        "predicateTerm": "IDENTIFIES_OBSERVATION",
        "object": "MBTESTCD"
      },
      "mandatoryVariable": false,
      "mandatoryValue": false
    },
    {
      "name": "MBSPEC",
      "dataElementConceptId": "C70713",
      "isNonStandard": false,
      "codelist": {
        "conceptId": "C78734",
        "submissionValue": "SPECTYPE",
        "href": "https://evsexplore.semantics.cancer.gov/evsexplore/concept/ncit/C78734"
      },
      "valueList": [
        "BLOOD",
        "CEREBROSPINAL FLUID",
        "FLUID",
        "SWABBED MATERIAL",
        "URINE"
      ],
      "role": "Qualifier",
      "relationship": {
        "subject": "MBSPEC",
        "linkingPhrase": "is the specimen tested in",
        "predicateTerm": "IS_SPECIMEN_TESTED_IN",
        "object": "MBTESTCD"
      },
      "mandatoryVariable": false,
      "mandatoryValue": false,
      "comparator": "IN"
    },
    {
      "name": "MBMETHOD",
      "dataElementConceptId": "C82535",
      "isNonStandard": false,
      "codelist": {
        "conceptId": "C85492",
        "submissionValue": "METHOD",
        "href": "https://evsexplore.semantics.cancer.gov/evsexplore/concept/ncit/C85492"
      },
      "assignedTerm": {
        "conceptId": "C102656",
        "value": "LINE PROBE ASSAY"
      },
      "role": "Qualifier",
      "relationship": {
        "subject": "MBMETHOD",
        "linkingPhrase": "is the method for the test in",
        "predicateTerm": "SPECIFIES",
        "object": "MBTESTCD"
      },
      "mandatoryVariable": false,
      "mandatoryValue": false,
      "comparator": "EQ"
    },
    {
      "name": "MBDTC",
      "dataElementConceptId": "C82515",
      "isNonStandard": false,
      "role": "Timing",
      "relationship": {
        "subject": "MBDTC",
        "linkingPhrase": "is the date of occurrence for",
        "predicateTerm": "IS_TIMING_FOR",
        "object": "MBTESTCD"
      },
      "mandatoryVariable": true,
      "mandatoryValue": false
    }
  ]
}
