{
  "_links": {
    "parentBiomedicalConcept": {
      "href": "/mdr/bc/biomedicalconcepts/C17208",
      "title": "Transcription",
      "type": "Biomedical Concept"
    },
    "parentPackage": {
      "href": "/mdr/specializations/sdtm/packages/2025-07-01/datasetspecializations",
      "title": "SDTM Dataset Specialization Package Effective 2025-07-01",
      "type": "SDTM Dataset Specialization Package"
    },
    "self": {
      "href": "/mdr/specializations/sdtm/datasetspecializations/TRNSCPTNGENTRNIND",
      "title": "Transcription Genetic Indicator",
      "type": "SDTM Dataset Specialization"
    }
  },
  "datasetSpecializationId": "TRNSCPTNGENTRNIND",
  "domain": "GF",
  "shortName": "Transcription Genetic Indicator",
  "source": "GF.GFTESTCD",
  "sdtmigStartVersion": "3-4",
  "sdtmigEndVersion": "",
  "variables": [
    {
      "name": "SPDEVID",
      "dataElementConceptId": "C117060",
      "isNonStandard": false,
      "role": "Identifier",
      "mandatoryVariable": false,
      "mandatoryValue": false
    },
    {
      "name": "GFTESTCD",
      "isNonStandard": false,
      "codelist": {
        "conceptId": "C181178",
        "submissionValue": "GFTESTCD",
        "href": "https://evsexplore.semantics.cancer.gov/evsexplore/concept/ncit/C181178"
      },
      "assignedTerm": {
        "conceptId": "C17208",
        "value": "TRNSCPTN"
      },
      "role": "Topic",
      "relationship": {
        "subject": "GFTESTCD",
        "linkingPhrase": "is the code for the value in",
        "predicateTerm": "IS_DECODED_BY",
        "object": "GFTEST"
      },
      "mandatoryVariable": true,
      "mandatoryValue": true,
      "comparator": "EQ"
    },
    {
      "name": "GFTEST",
      "isNonStandard": false,
      "codelist": {
        "conceptId": "C181179",
        "submissionValue": "GFTEST",
        "href": "https://evsexplore.semantics.cancer.gov/evsexplore/concept/ncit/C181179"
      },
      "assignedTerm": {
        "conceptId": "C17208",
        "value": "Transcription"
      },
      "role": "Qualifier",
      "relationship": {
        "subject": "GFTEST",
        "linkingPhrase": "decodes the value in",
        "predicateTerm": "DECODES",
        "object": "GFTESTCD"
      },
      "mandatoryVariable": true,
      "mandatoryValue": true
    },
    {
      "name": "GFTSTDTL",
      "dataElementConceptId": "C117062",
      "isNonStandard": false,
      "codelist": {
        "conceptId": "C181180",
        "submissionValue": "GFTSDTL",
        "href": "https://evsexplore.semantics.cancer.gov/evsexplore/concept/ncit/C181180"
      },
      "assignedTerm": {
        "conceptId": "C181338",
        "value": "GENETIC TRANSCRIPTION INDICATOR"
      },
      "role": "Qualifier",
      "relationship": {
        "subject": "GFTSTDTL",
        "linkingPhrase": "further describes the test in",
        "predicateTerm": "SPECIFIES",
        "object": "GFTESTCD"
      },
      "mandatoryVariable": false,
      "mandatoryValue": false,
      "comparator": "EQ"
    },
    {
      "name": "GFCAT",
      "dataElementConceptId": "C25372",
      "isNonStandard": false,
      "assignedTerm": {
        "value": "GENE EXPRESSION"
      },
      "role": "Qualifier",
      "relationship": {
        "subject": "GFCAT",
        "linkingPhrase": "groups values in",
        "predicateTerm": "GROUPS",
        "object": "GFTESTCD"
      },
      "mandatoryVariable": false,
      "mandatoryValue": false
    },
    {
      "name": "GFORRES",
      "dataElementConceptId": "C70856",
      "isNonStandard": false,
      "role": "Qualifier",
      "dataType": "text",
      "length": 20,
      "relationship": {
        "subject": "GFORRES",
        "linkingPhrase": "is the result of the test in",
        "predicateTerm": "IS_RESULT_OF",
        "object": "GFTESTCD"
      },
      "mandatoryVariable": true,
      "mandatoryValue": false,
      "originType": "Collected",
      "originSource": "Vendor",
      "vlmTarget": true
    },
    {
      "name": "GFSTRESC",
      "dataElementConceptId": "C70856",
      "isNonStandard": false,
      "role": "Qualifier",
      "dataType": "text",
      "length": 20,
      "relationship": {
        "subject": "GFSTRESC",
        "linkingPhrase": "is the result of the test in",
        "predicateTerm": "IS_RESULT_OF",
        "object": "GFTESTCD"
      },
      "mandatoryVariable": true,
      "mandatoryValue": false,
      "originType": "Collected",
      "originSource": "Vendor",
      "vlmTarget": true
    },
    {
      "name": "GFGENREF",
      "dataElementConceptId": "C164815",
      "isNonStandard": false,
      "role": "Qualifier",
      "relationship": {
        "subject": "GFGENREF",
        "linkingPhrase": "identifies the reference used in the genomic test in",
        "predicateTerm": "SPECIFIES",
        "object": "GFTESTCD"
      },
      "mandatoryVariable": false,
      "mandatoryValue": false
    },
    {
      "name": "GFCHROM",
      "dataElementConceptId": "C164716",
      "isNonStandard": false,
      "role": "Qualifier",
      "relationship": {
        "subject": "GFCHROM",
        "linkingPhrase": "is the chromosome that is the position of the result in",
        "predicateTerm": "IS_POSITION_FOR",
        "object": "GFORRES"
      },
      "mandatoryVariable": false,
      "mandatoryValue": false
    },
    {
      "name": "GFSYM",
      "dataElementConceptId": "C43568",
      "isNonStandard": false,
      "role": "Qualifier",
      "relationship": {
        "subject": "GFSYM",
        "linkingPhrase": "is the symbol for the genomic entity that is the position of the result in",
        "predicateTerm": "IS_POSITION_FOR",
        "object": "GFORRES"
      },
      "mandatoryVariable": false,
      "mandatoryValue": false
    },
    {
      "name": "GFSYMTYP",
      "dataElementConceptId": "C204092",
      "isNonStandard": false,
      "codelist": {
        "conceptId": "C181176",
        "submissionValue": "SYMTYPGF",
        "href": "https://evsexplore.semantics.cancer.gov/evsexplore/concept/ncit/C181176"
      },
      "assignedTerm": {
        "conceptId": "C181531",
        "value": "GENE WITH PROTEIN PRODUCT"
      },
      "role": "Qualifier",
      "relationship": {
        "subject": "GFSYMTYP",
        "linkingPhrase": "is the type of genomic entity that is the position of the result in",
        "predicateTerm": "IS_POSITION_FOR",
        "object": "GFORRES"
      },
      "mandatoryVariable": false,
      "mandatoryValue": false,
      "comparator": "EQ"
    },
    {
      "name": "GFSEQID",
      "dataElementConceptId": "C164811",
      "isNonStandard": false,
      "role": "Qualifier",
      "relationship": {
        "subject": "GFSEQID",
        "linkingPhrase": "is an identifier for the genetic sequence of the genetic entity represented by",
        "predicateTerm": "IDENTIFIES",
        "object": "GFSYM"
      },
      "mandatoryVariable": false,
      "mandatoryValue": false
    },
    {
      "name": "GFSPEC",
      "dataElementConceptId": "C70713",
      "isNonStandard": false,
      "codelist": {
        "conceptId": "C111114",
        "submissionValue": "GENSMP",
        "href": "https://evsexplore.semantics.cancer.gov/evsexplore/concept/ncit/C111114"
      },
      "assignedTerm": {
        "conceptId": "C812",
        "value": "RNA"
      },
      "role": "Qualifier",
      "relationship": {
        "subject": "GFSPEC",
        "linkingPhrase": "is the specimen tested in",
        "predicateTerm": "IS_SPECIMEN_TESTED_IN",
        "object": "GFTESTCD"
      },
      "mandatoryVariable": false,
      "mandatoryValue": false,
      "comparator": "EQ"
    },
    {
      "name": "GFMETHOD",
      "dataElementConceptId": "C82535",
      "isNonStandard": false,
      "codelist": {
        "conceptId": "C85492",
        "submissionValue": "METHOD",
        "href": "https://evsexplore.semantics.cancer.gov/evsexplore/concept/ncit/C85492"
      },
      "assignedTerm": {
        "conceptId": "C158252",
        "value": "TARGETED TRANSCRIPTOME SEQUENCING"
      },
      "role": "Qualifier",
      "relationship": {
        "subject": "GFMETHOD",
        "linkingPhrase": "is the method for the test in",
        "predicateTerm": "SPECIFIES",
        "object": "GFTESTCD"
      },
      "mandatoryVariable": true,
      "mandatoryValue": false,
      "comparator": "EQ"
    },
    {
      "name": "GFANMETH",
      "dataElementConceptId": "C117039",
      "isNonStandard": false,
      "codelist": {
        "conceptId": "C181181",
        "submissionValue": "GFANMET",
        "href": "https://evsexplore.semantics.cancer.gov/evsexplore/concept/ncit/C181181"
      },
      "assignedTerm": {
        "conceptId": "C181326",
        "value": "READS PER KILOBASE MILLION FORMULA"
      },
      "role": "Qualifier",
      "relationship": {
        "subject": "GFANMETH",
        "linkingPhrase": "is the method of secondary analysis of results in",
        "predicateTerm": "SPECIFIES",
        "object": "GFTESTCD"
      },
      "mandatoryVariable": false,
      "mandatoryValue": false,
      "comparator": "EQ"
    },
    {
      "name": "GFDTC",
      "dataElementConceptId": "C82515",
      "isNonStandard": false,
      "role": "Timing",
      "relationship": {
        "subject": "GFDTC",
        "linkingPhrase": "is the date of occurrence for",
        "predicateTerm": "IS_TIMING_FOR",
        "object": "GFTESTCD"
      },
      "mandatoryVariable": false,
      "mandatoryValue": false
    }
  ]
}
