{
  "_links": {
    "parentBiomedicalConcept": {
      "href": "/mdr/bc/biomedicalconcepts/C96642",
      "title": "Tumor Fragmentation",
      "type": "Biomedical Concept"
    },
    "parentPackage": {
      "href": "/mdr/specializations/sdtm/packages/2025-12-16/datasetspecializations",
      "title": "SDTM Dataset Specialization Package Effective 2025-12-16",
      "type": "SDTM Dataset Specialization Package"
    },
    "self": {
      "href": "/mdr/specializations/sdtm/datasetspecializations/TUSPLIT_RECIST1_1",
      "title": "Tumor Split (RECIST 1.1 Classification)",
      "type": "SDTM Dataset Specialization"
    }
  },
  "datasetSpecializationId": "TUSPLIT_RECIST1_1",
  "domain": "TU",
  "shortName": "Tumor Split (RECIST 1.1 Classification)",
  "source": "TU.TUTESTCD",
  "sdtmigStartVersion": "3-2",
  "sdtmigEndVersion": "",
  "variables": [
    {
      "name": "TUTESTCD",
      "isNonStandard": false,
      "codelist": {
        "conceptId": "C96784",
        "submissionValue": "TUTESTCD",
        "href": "https://evsexplore.semantics.cancer.gov/evsexplore/concept/ncit/C96784"
      },
      "assignedTerm": {
        "conceptId": "C96642",
        "value": "TUSPLIT"
      },
      "role": "Topic",
      "relationship": {
        "subject": "TUTESTCD",
        "linkingPhrase": "is the code for the value in",
        "predicateTerm": "IS_DECODED_BY",
        "object": "TUTEST"
      },
      "mandatoryVariable": true,
      "mandatoryValue": true,
      "originType": "Assigned",
      "originSource": "Sponsor",
      "comparator": "EQ"
    },
    {
      "name": "TUTEST",
      "isNonStandard": false,
      "codelist": {
        "conceptId": "C96783",
        "submissionValue": "TUTEST",
        "href": "https://evsexplore.semantics.cancer.gov/evsexplore/concept/ncit/C96783"
      },
      "assignedTerm": {
        "conceptId": "C96642",
        "value": "Tumor Split"
      },
      "role": "Qualifier",
      "relationship": {
        "subject": "TUTEST",
        "linkingPhrase": "decodes the value in",
        "predicateTerm": "DECODES",
        "object": "TUTESTCD"
      },
      "mandatoryVariable": true,
      "mandatoryValue": true,
      "originType": "Assigned",
      "originSource": "Sponsor"
    },
    {
      "name": "TUORRES",
      "dataElementConceptId": "C70856",
      "isNonStandard": false,
      "codelist": {
        "conceptId": "C123650",
        "submissionValue": "TUIDRS",
        "href": "https://evsexplore.semantics.cancer.gov/evsexplore/concept/ncit/C123650"
      },
      "assignedTerm": {
        "conceptId": "C94520",
        "value": "TARGET"
      },
      "role": "Qualifier",
      "dataType": "text",
      "length": 10,
      "relationship": {
        "subject": "TUORRES",
        "linkingPhrase": "is the result of the test in",
        "predicateTerm": "IS_RESULT_OF",
        "object": "TUTESTCD"
      },
      "mandatoryVariable": true,
      "mandatoryValue": false,
      "originType": "Assigned",
      "originSource": "Sponsor",
      "vlmTarget": true
    },
    {
      "name": "TUSTRESC",
      "dataElementConceptId": "C70856",
      "isNonStandard": false,
      "codelist": {
        "conceptId": "C123650",
        "submissionValue": "TUIDRS",
        "href": "https://evsexplore.semantics.cancer.gov/evsexplore/concept/ncit/C123650"
      },
      "assignedTerm": {
        "conceptId": "C94520",
        "value": "TARGET"
      },
      "role": "Qualifier",
      "dataType": "text",
      "length": 10,
      "relationship": {
        "subject": "TUSTRESC",
        "linkingPhrase": "is the result of the test in",
        "predicateTerm": "IS_RESULT_OF",
        "object": "TUTESTCD"
      },
      "mandatoryVariable": true,
      "mandatoryValue": false,
      "originType": "Derived",
      "originSource": "Sponsor",
      "vlmTarget": true
    },
    {
      "name": "TULOC",
      "dataElementConceptId": "C170500",
      "isNonStandard": false,
      "codelist": {
        "conceptId": "C74456",
        "submissionValue": "LOC",
        "href": "https://evsexplore.semantics.cancer.gov/evsexplore/concept/ncit/C74456"
      },
      "role": "Qualifier",
      "relationship": {
        "subject": "TULOC",
        "linkingPhrase": "specifies the anatomical location of the tumor identified by",
        "predicateTerm": "SPECIFIES",
        "object": "TULNKID"
      },
      "mandatoryVariable": true,
      "mandatoryValue": false,
      "originType": "Collected",
      "originSource": "Investigator"
    },
    {
      "name": "TULAT",
      "dataElementConceptId": "C25185",
      "isNonStandard": false,
      "codelist": {
        "conceptId": "C99073",
        "submissionValue": "LAT",
        "href": "https://evsexplore.semantics.cancer.gov/evsexplore/concept/ncit/C99073"
      },
      "role": "Qualifier",
      "relationship": {
        "subject": "TULAT",
        "linkingPhrase": "further specifies the anatomical location in",
        "predicateTerm": "SPECIFIES",
        "object": "TULOC"
      },
      "mandatoryVariable": false,
      "mandatoryValue": false,
      "originType": "Collected",
      "originSource": "Investigator"
    },
    {
      "name": "TUDIR",
      "dataElementConceptId": "C54215",
      "isNonStandard": false,
      "codelist": {
        "conceptId": "C99074",
        "submissionValue": "DIR",
        "href": "https://evsexplore.semantics.cancer.gov/evsexplore/concept/ncit/C99074"
      },
      "role": "Qualifier",
      "relationship": {
        "subject": "TUDIR",
        "linkingPhrase": "further specifies the anatomical location in",
        "predicateTerm": "SPECIFIES",
        "object": "TULOC"
      },
      "mandatoryVariable": false,
      "mandatoryValue": false,
      "originType": "Collected",
      "originSource": "Investigator"
    },
    {
      "name": "TUMETHOD",
      "dataElementConceptId": "C82535",
      "isNonStandard": false,
      "codelist": {
        "conceptId": "C85492",
        "submissionValue": "METHOD",
        "href": "https://evsexplore.semantics.cancer.gov/evsexplore/concept/ncit/C85492"
      },
      "valueList": [
        "CT SCAN",
        "CALIPER MEASUREMENT METHOD",
        "ENDOSCOPY",
        "LYMPHANGIOGRAPHY",
        "MAMMOGRAPHY",
        "MRI",
        "NUCLEAR RADIOLOGY",
        "PET SCAN",
        "PET/CT SCAN",
        "PET/MRI SCAN",
        "PHOTOGRAPHY",
        "SCINTIGRAPHY",
        "TOTAL BODY RADIOGRAPHY",
        "ULTRASOUND",
        "X-RAY"
      ],
      "role": "Qualifier",
      "relationship": {
        "subject": "TUMETHOD",
        "linkingPhrase": "is the method for the test in",
        "predicateTerm": "SPECIFIES",
        "object": "TUTESTCD"
      },
      "mandatoryVariable": true,
      "mandatoryValue": false,
      "originType": "Collected",
      "originSource": "Investigator",
      "comparator": "IN"
    },
    {
      "name": "TUEVAL",
      "dataElementConceptId": "C51824",
      "isNonStandard": false,
      "codelist": {
        "conceptId": "C78735",
        "submissionValue": "EVAL",
        "href": "https://evsexplore.semantics.cancer.gov/evsexplore/concept/ncit/C78735"
      },
      "valueList": [
        "INVESTIGATOR",
        "INDEPENDENT ASSESSOR, RADIOLOGIST"
      ],
      "role": "Qualifier",
      "relationship": {
        "subject": "TUEVAL",
        "linkingPhrase": "is the role of the assessor who performed the test in",
        "predicateTerm": "PERFORMS",
        "object": "TUTESTCD"
      },
      "mandatoryVariable": false,
      "mandatoryValue": false,
      "originType": "Assigned",
      "originSource": "Sponsor",
      "comparator": "IN"
    },
    {
      "name": "TUEVALID",
      "dataElementConceptId": "C117043",
      "isNonStandard": false,
      "codelist": {
        "conceptId": "C96777",
        "submissionValue": "MEDEVAL",
        "href": "https://evsexplore.semantics.cancer.gov/evsexplore/concept/ncit/C96777"
      },
      "valueList": [
        "RADIOLOGIST 1",
        "RADIOLOGIST 2",
        "RADIOLOGIST 3"
      ],
      "role": "Qualifier",
      "relationship": {
        "subject": "TUEVALID",
        "linkingPhrase": "is an identifier for the evaluator with the role in",
        "predicateTerm": "IDENTIFIES",
        "object": "TUEVAL"
      },
      "mandatoryVariable": false,
      "mandatoryValue": false,
      "originType": "Collected",
      "originSource": "Vendor",
      "comparator": "IN"
    },
    {
      "name": "TUREFID",
      "dataElementConceptId": "C117442",
      "isNonStandard": false,
      "role": "Identifier",
      "relationship": {
        "subject": "TUREFID",
        "linkingPhrase": "identifies the image from the procedure in",
        "predicateTerm": "IDENTIFIES_PRODUCT_IN",
        "object": "PRTRT"
      },
      "mandatoryVariable": true,
      "mandatoryValue": false,
      "originType": "Assigned",
      "originSource": "Sponsor"
    },
    {
      "name": "TULNKID",
      "dataElementConceptId": "C117436",
      "isNonStandard": false,
      "role": "Identifier",
      "relationship": {
        "subject": "TULNKID",
        "linkingPhrase": "identifies the tumor found by the test in",
        "predicateTerm": "IDENTIFIES_TUMOR_IN",
        "object": "TUTESTCD"
      },
      "mandatoryVariable": true,
      "mandatoryValue": false,
      "originType": "Assigned",
      "originSource": "Sponsor"
    },
    {
      "name": "TULOCDTL",
      "isNonStandard": true,
      "role": "Qualifier",
      "relationship": {
        "subject": "TULOCDTL",
        "linkingPhrase": "indicates the location detail for the tumor identified by",
        "predicateTerm": "SPECIFIES",
        "object": "TULNKID"
      },
      "mandatoryVariable": false,
      "mandatoryValue": false,
      "originType": "Collected",
      "originSource": "Investigator"
    },
    {
      "name": "TUDTC",
      "dataElementConceptId": "C82515",
      "isNonStandard": false,
      "role": "Timing",
      "relationship": {
        "subject": "TUDTC",
        "linkingPhrase": "is the date of occurrence for",
        "predicateTerm": "IS_TIMING_FOR",
        "object": "TUTESTCD"
      },
      "mandatoryVariable": true,
      "mandatoryValue": false,
      "originType": "Collected",
      "originSource": "Investigator"
    }
  ]
}
