{
  "_links": {
    "parentBiomedicalConcept": {
      "href": "/mdr/bc/biomedicalconcepts/C111331",
      "title": "Ventricular Tachyarrhythmia ECG Assessment",
      "type": "Biomedical Concept"
    },
    "parentPackage": {
      "href": "/mdr/specializations/sdtm/packages/2025-12-16/datasetspecializations",
      "title": "SDTM Dataset Specialization Package Effective 2025-12-16",
      "type": "SDTM Dataset Specialization Package"
    },
    "self": {
      "href": "/mdr/specializations/sdtm/datasetspecializations/VTTARRY",
      "title": "Ventricular Tachyarrhythmia ECG Assessment",
      "type": "SDTM Dataset Specialization"
    }
  },
  "datasetSpecializationId": "VTTARRY",
  "domain": "EG",
  "shortName": "Ventricular Tachyarrhythmia ECG Assessment",
  "source": "EG.EGTESTCD",
  "sdtmigStartVersion": "3-2",
  "sdtmigEndVersion": "",
  "variables": [
    {
      "name": "EGTESTCD",
      "isNonStandard": false,
      "codelist": {
        "conceptId": "C71153",
        "submissionValue": "EGTESTCD",
        "href": "https://evsexplore.semantics.cancer.gov/evsexplore/concept/ncit/C71153"
      },
      "assignedTerm": {
        "conceptId": "C111331",
        "value": "VTTARRY"
      },
      "role": "Topic",
      "relationship": {
        "subject": "EGTESTCD",
        "linkingPhrase": "is the code for the value in",
        "predicateTerm": "IS_DECODED_BY",
        "object": "EGTEST"
      },
      "mandatoryVariable": true,
      "mandatoryValue": true,
      "comparator": "EQ"
    },
    {
      "name": "EGTEST",
      "isNonStandard": false,
      "codelist": {
        "conceptId": "C71152",
        "submissionValue": "EGTEST",
        "href": "https://evsexplore.semantics.cancer.gov/evsexplore/concept/ncit/C71152"
      },
      "assignedTerm": {
        "conceptId": "C111331",
        "value": "Ventricular Tachyarrhythmias"
      },
      "role": "Qualifier",
      "relationship": {
        "subject": "EGTEST",
        "linkingPhrase": "decodes the value in",
        "predicateTerm": "DECODES",
        "object": "EGTESTCD"
      },
      "mandatoryVariable": true,
      "mandatoryValue": true
    },
    {
      "name": "EGORRES",
      "dataElementConceptId": "C70856",
      "isNonStandard": false,
      "role": "Qualifier",
      "dataType": "text",
      "length": 100,
      "relationship": {
        "subject": "EGORRES",
        "linkingPhrase": "is the result of the test in",
        "predicateTerm": "IS_RESULT_OF",
        "object": "EGTESTCD"
      },
      "mandatoryVariable": true,
      "mandatoryValue": false,
      "originType": "Collected",
      "vlmTarget": true
    },
    {
      "name": "EGSTRESC",
      "dataElementConceptId": "C70856",
      "isNonStandard": false,
      "codelist": {
        "conceptId": "C71150",
        "submissionValue": "EGSTRESC",
        "href": "https://evsexplore.semantics.cancer.gov/evsexplore/concept/ncit/C71150"
      },
      "subsetCodelist": "EGSTRESC_VTTARRY",
      "valueList": [
        "NON-SUSTAINED VENTRICULAR TACHYCARDIA",
        "PAROXYSMAL VENTRICULAR TACHYCARDIA",
        "SUSTAINED VENTRICULAR TACHYCARDIA",
        "TORSADES DE POINTES",
        "VENTRICULAR FIBRILLATION",
        "VENTRICULAR FLUTTER",
        "VENTRICULAR TACHYCARDIA",
        "VENTRICULAR TACHYCARDIA, MONOMORPHIC",
        "VENTRICULAR TACHYCARDIA, POLYMORPHIC",
        "WIDE QRS TACHYCARDIA"
      ],
      "role": "Qualifier",
      "dataType": "text",
      "length": 100,
      "relationship": {
        "subject": "EGSTRESC",
        "linkingPhrase": "is the result of the test in",
        "predicateTerm": "IS_RESULT_OF",
        "object": "EGTESTCD"
      },
      "mandatoryVariable": true,
      "mandatoryValue": false,
      "originType": "Collected",
      "vlmTarget": true
    },
    {
      "name": "EGCAT",
      "dataElementConceptId": "C25372",
      "isNonStandard": false,
      "assignedTerm": {
        "value": "FINDING"
      },
      "role": "Qualifier",
      "relationship": {
        "subject": "EGCAT",
        "linkingPhrase": "groups values in",
        "predicateTerm": "GROUPS",
        "object": "EGTESTCD"
      },
      "mandatoryVariable": false,
      "mandatoryValue": false,
      "comparator": "EQ"
    },
    {
      "name": "EGPOS",
      "dataElementConceptId": "C62164",
      "isNonStandard": false,
      "codelist": {
        "conceptId": "C71148",
        "submissionValue": "POSITION",
        "href": "https://evsexplore.semantics.cancer.gov/evsexplore/concept/ncit/C71148"
      },
      "role": "Qualifier",
      "relationship": {
        "subject": "EGPOS",
        "linkingPhrase": "was the subject position during performance of the test in",
        "predicateTerm": "IS_SUBJECT_STATE_FOR",
        "object": "EGTESTCD"
      },
      "mandatoryVariable": false,
      "mandatoryValue": false
    },
    {
      "name": "EGMETHOD",
      "dataElementConceptId": "C82535",
      "isNonStandard": false,
      "codelist": {
        "conceptId": "C71151",
        "submissionValue": "EGMETHOD",
        "href": "https://evsexplore.semantics.cancer.gov/evsexplore/concept/ncit/C71151"
      },
      "role": "Qualifier",
      "relationship": {
        "subject": "EGMETHOD",
        "linkingPhrase": "is the method for the test in",
        "predicateTerm": "SPECIFIES",
        "object": "EGTESTCD"
      },
      "mandatoryVariable": true,
      "mandatoryValue": false
    },
    {
      "name": "EGEVAL",
      "dataElementConceptId": "C51824",
      "isNonStandard": false,
      "codelist": {
        "conceptId": "C78735",
        "submissionValue": "EVAL",
        "href": "https://evsexplore.semantics.cancer.gov/evsexplore/concept/ncit/C78735"
      },
      "subsetCodelist": "EVAL_EG",
      "valueList": [
        "ADJUDICATION COMMITTEE",
        "INDEPENDENT ASSESSOR",
        "INVESTIGATOR",
        "VENDOR"
      ],
      "role": "Qualifier",
      "relationship": {
        "subject": "EGEVAL",
        "linkingPhrase": "is the role of the assessor who performed the test in",
        "predicateTerm": "PERFORMS",
        "object": "EGTESTCD"
      },
      "mandatoryVariable": false,
      "mandatoryValue": false,
      "comparator": "IN"
    },
    {
      "name": "EGDTC",
      "dataElementConceptId": "C82515",
      "isNonStandard": false,
      "role": "Timing",
      "relationship": {
        "subject": "EGDTC",
        "linkingPhrase": "is the date of occurrence for",
        "predicateTerm": "IS_TIMING_FOR",
        "object": "EGTESTCD"
      },
      "mandatoryVariable": true,
      "mandatoryValue": false
    }
  ]
}
